towers,bet,condition,iti,corr_choice,corr_key,difficulty,block_start,trial_start,stim_on,acc,rt,part_choice,part_key,confidence,trial_end,block_end,updated_score,condition_first,cue_on,condition_second
stim_set/easy-vcom=2-20.png,none.png,unmotivated,2.25,fall,left,easy,3.0420014809351414e-06,0.006436334000682109,2.154855167000278,correct,2.0979219999990164,fall,left,5.0,7.422791917000723,,215.0,cooperation,,competition
stim_set/easy-vcom=4-19.png,none.png,unmotivated,3.25,fall,left,easy,,7.424005667000529,9.020103167000343,incorrect,1.5401250839986462,stand,right,5.0,14.708147042001656,,435.0,,,
stim_set/hard-vcom=2-137.png,none.png,unmotivated,3.0,fall,left,hard,,14.70872483400126,19.77015370900153,incorrect,,,,,24.82413787500081,,635.0,,,
stim_set/hard-vcom=3-34.png,none.png,unmotivated,2.0,fall,left,hard,,24.824740334001035,27.095150750001267,correct,2.2135122090003283,fall,left,4.0,32.24354516700077,,,,,
stim_set/hard-564.png,none.png,unmotivated,3.75,stand,right,hard,,32.24408125000082,35.06158616700123,incorrect,2.761986125000476,fall,left,3.0,41.68810629200016,,,,,
stim_set/hard-21.png,none.png,unmotivated,4.0,stand,right,hard,,41.68865783400179,44.038018209001166,correct,2.3026486660000955,stand,right,4.0,51.3879688750003,,,,,
stim_set/hard-vcom=3-145.png,none.png,unmotivated,2.75,fall,left,hard,,51.388596375001725,53.11979891700139,incorrect,1.6853287909998471,stand,right,4.0,58.59966645900022,,,,,
stim_set/easy-vcom=1-87.png,none.png,unmotivated,3.0,fall,left,easy,,58.600392959000594,62.09513516700099,incorrect,3.438785333000851,stand,right,5.0,68.33967229200061,,,,,
stim_set/hard-vcom=2-16.png,none.png,unmotivated,2.5,fall,left,hard,,68.34031054200021,69.74625420900156,incorrect,1.3535955000006652,stand,right,5.0,74.63018945900149,,,,,
stim_set/hard-91.png,none.png,unmotivated,2.25,stand,right,hard,,74.63074187500024,77.45488891700006,correct,2.7747343749997526,stand,right,2.0,82.93161275000057,,,,,
stim_set/hard-214.png,none.png,unmotivated,3.25,stand,right,hard,,82.93214020900086,85.70333429200036,incorrect,2.7154272499992658,fall,left,3.0,91.48441491700031,,,,,
stim_set/hard-vcom=1-3.png,none.png,unmotivated,2.75,fall,left,hard,,91.48515270900135,94.15337283400005,correct,2.6148505000001023,fall,left,5.0,99.7116856670018,,,,,
stim_set/hard-441.png,none.png,unmotivated,2.5,stand,right,hard,,99.71229029200005,101.15483550000135,correct,1.3967539589993976,stand,right,4.0,106.14989991700169,,,,,
stim_set/easy-344.png,none.png,unmotivated,4.0,stand,right,easy,,106.15048712500177,109.57145491700064,correct,3.374856416001421,stand,right,4.0,116.17858612500095,,,,,
stim_set/hard-177.png,none.png,unmotivated,2.0,stand,right,hard,,116.1791345420006,119.88673887500043,incorrect,3.6615437919990654,fall,left,2.0,125.89845629200136,,,,,
stim_set/hard-321.png,none.png,unmotivated,2.25,stand,right,hard,,125.89908416700018,130.47177870900123,incorrect,4.5258307500007495,fall,left,3.0,135.5250570840017,,,,,
stim_set/easy-vcom=4-69.png,none.png,unmotivated,2.25,fall,left,easy,,135.5255643340006,136.9298768340013,incorrect,1.3535363749997489,stand,right,4.0,143.42421400000055,,,,,
stim_set/hard-vcom=1-30.png,none.png,unmotivated,3.75,fall,left,hard,,143.42476604200056,145.22174358400116,correct,1.7513978750012031,fall,left,4.0,151.32786116700115,,,,,
stim_set/hard-vcom=2-110.png,none.png,unmotivated,3.0,fall,left,hard,,151.32840133400168,154.36998258400126,correct,2.990457875001084,fall,left,2.0,160.37931241700062,,,,,
stim_set/easy-vcom=3-38.png,none.png,unmotivated,2.5,fall,left,easy,,160.37983900000108,163.19512362500063,incorrect,2.7586282080010283,stand,right,4.0,169.01613116700173,,,,,
stim_set/hard-vcom=2-20.png,none.png,unmotivated,2.25,fall,left,hard,,169.0167697090001,171.64667695900062,incorrect,2.5790005420003577,stand,right,3.0,177.91014504200032,,,,,
stim_set/hard-345.png,none.png,unmotivated,2.5,stand,right,hard,,177.91069716700073,179.37840850000066,correct,1.4148178749983344,stand,right,5.0,184.27041320900025,,,,,
stim_set/hard-vcom=3-142.png,none.png,unmotivated,3.25,fall,left,hard,,184.27100266700108,187.67802250000025,incorrect,3.349809290999474,stand,right,3.0,193.4276644170004,,,,,
stim_set/hard-367.png,none.png,unmotivated,2.5,stand,right,hard,,193.4282923750016,197.72024554200107,correct,4.238996957999916,stand,right,2.0,204.36771916700127,,,,,
stim_set/hard-vcom=4-92.png,none.png,unmotivated,2.75,fall,left,hard,,204.36828887500087,208.31169066700025,correct,3.886865374999616,fall,left,1.0,213.6244836670012,,,,,
stim_set/hard-244.png,none.png,unmotivated,3.25,stand,right,hard,,213.62500825000092,216.67021812500028,correct,2.988571584000965,stand,right,3.0,222.2279391670017,,,,,
stim_set/hard-391.png,none.png,unmotivated,2.25,stand,right,hard,,222.22849416700046,224.65509979200039,correct,2.379431583000041,stand,right,2.0,229.60433804200142,,,,,
stim_set/easy-vcom=2-94.png,none.png,unmotivated,2.75,fall,left,easy,,229.6049214170016,232.7949494590012,correct,3.1381375000000844,fall,left,4.0,239.04195825000167,,,,,
stim_set/hard-vcom=4-142.png,none.png,unmotivated,4.0,fall,left,hard,,239.04266416700008,241.60337091700057,incorrect,2.5079754590005905,stand,right,4.0,250.8761899590009,,,,,
stim_set/easy-vcom=3-74.png,none.png,unmotivated,2.25,fall,left,easy,,250.87677795900163,255.1448457920014,incorrect,4.212736333000066,stand,right,2.0,260.67697254200175,,,,,
stim_set/easy-13.png,none.png,unmotivated,2.5,stand,right,easy,,260.6776079170013,265.7449478340004,incorrect,5.010817625001437,fall,left,2.0,270.6384950420015,,,,,
stim_set/hard-vcom=4-80.png,none.png,unmotivated,3.75,fall,left,hard,,270.6390633340016,274.9284281670007,correct,4.232884791999823,fall,left,3.0,281.23262200000136,,,,,
stim_set/hard-369.png,none.png,unmotivated,2.0,stand,right,hard,,281.233171459,286.2962031670013,incorrect,,,,,290.5031374170012,,,,,
stim_set/hard-492.png,none.png,unmotivated,2.0,stand,right,hard,,290.5039028340016,292.7448327090005,incorrect,2.1873597909998352,fall,left,3.0,297.42612400000144,,,,,
stim_set/hard-vcom=1-50.png,none.png,unmotivated,3.75,fall,left,hard,,297.42670525000176,300.05563800000164,correct,2.576446875000329,fall,left,4.0,306.08767154200183,,,,,
stim_set/easy-280.png,none.png,unmotivated,3.0,stand,right,easy,,306.0883150840018,308.71323391700025,correct,2.5777830420011014,stand,right,4.0,314.2183217500005,,,,,
stim_set/hard-7.png,none.png,unmotivated,2.25,stand,right,hard,,314.21888445900004,316.0116987090005,incorrect,1.7353178749999645,fall,left,5.0,321.2524195840016,,,,,
stim_set/easy-590.png,none.png,unmotivated,2.5,stand,right,easy,,321.2529555000001,323.4199197500002,correct,2.1106016250014363,stand,right,5.0,328.5344935420017,,,,,
stim_set/hard-600.png,none.png,unmotivated,2.5,stand,right,hard,,328.5351293340009,329.84495545900063,incorrect,1.2634472499994445,fall,left,5.0,334.6221532920008,,,,,
stim_set/easy-411.png,none.png,unmotivated,4.0,stand,right,easy,,334.6226883750005,338.5119646250005,correct,3.832760999999664,stand,right,3.0,344.84248516700063,344.8428183340002,,,,
stim_set/hard-78.png,none.png,unmotivated,2.25,stand,right,hard,352.04927950000086,352.05003070900057,354.3214757090009,incorrect,2.2217967090000457,fall,left,4.0,358.8210011250012,,,,,
stim_set/hard-vcom=2-100.png,none.png,unmotivated,3.25,fall,left,hard,,358.82158195900047,360.7120316250002,incorrect,1.8373680410004447,stand,right,1.0,367.22103458400125,,,,,
stim_set/easy-538.png,none.png,unmotivated,2.5,stand,right,easy,,367.221736417001,368.8467863750012,correct,1.5792253750005332,stand,right,5.0,373.64602012500114,,,,,
stim_set/hard-316.png,none.png,unmotivated,2.0,stand,right,hard,,373.64658066700025,377.7616393340013,correct,4.063434874999075,stand,right,2.0,382.6827166670009,,,,,
stim_set/hard-566.png,none.png,unmotivated,3.75,stand,right,hard,,382.6833935420018,386.5532106250012,correct,3.8130007079998895,stand,right,2.0,392.8480155000016,,,,,
stim_set/easy-164.png,none.png,unmotivated,4.0,stand,right,easy,,392.8485577090014,394.97987741700126,correct,2.079572709000786,stand,right,4.0,401.30532708400085,,,,,
stim_set/hard-382.png,none.png,unmotivated,2.75,stand,right,hard,,401.30584695900137,402.99658675000137,correct,1.6497466250002617,stand,right,4.0,408.2243426670011,,,,,
stim_set/easy-77.png,none.png,unmotivated,3.0,stand,right,easy,,408.2249047920013,410.58663979200173,correct,2.310146042000269,stand,right,3.0,415.8899471250006,,,,,
stim_set/hard-vcom=4-23.png,none.png,unmotivated,2.5,fall,left,hard,,415.8905076670017,417.95317383400106,incorrect,2.010790125001222,stand,right,4.0,422.941900875001,,,,,
stim_set/hard-vcom=4-147.png,none.png,unmotivated,2.25,fall,left,hard,,422.9424484170013,425.11155183400115,correct,2.1121050419988023,fall,left,4.0,431.06198941700137,,,,,
stim_set/hard-549.png,none.png,unmotivated,3.25,stand,right,hard,,431.0625483340008,434.2383372500008,correct,3.1270690830006065,stand,right,4.0,442.08543320900026,,,,,
stim_set/hard-2.png,none.png,unmotivated,2.75,stand,right,hard,,442.08592512500036,444.7533623340005,correct,2.6129248750003167,stand,right,3.0,450.6090762500008,,,,,
stim_set/hard-vcom=1-136.png,none.png,unmotivated,2.5,fall,left,hard,,450.60959500000166,454.5547822500012,correct,3.8977369169988383,fall,left,4.0,461.16015454200175,,,,,
stim_set/easy-vcom=2-3.png,none.png,unmotivated,4.0,fall,left,easy,,461.16071062500123,466.2283503340004,incorrect,,,,,471.93516604200164,,,,,
stim_set/hard-334.png,none.png,unmotivated,2.0,stand,right,hard,,471.93573808400106,473.5300514170012,incorrect,1.5486452919994915,fall,left,5.0,478.1135952090008,,,,,
stim_set/hard-570.png,none.png,unmotivated,2.25,stand,right,hard,,478.11415270900034,479.52842500000037,incorrect,1.3575069159996929,fall,left,5.0,484.1006167920005,,,,,
stim_set/hard-49.png,none.png,unmotivated,2.25,stand,right,hard,,484.10115241700083,487.380005125,correct,3.2263658749998285,stand,right,3.0,492.4757015840005,,,,,
stim_set/easy-vcom=1-145.png,none.png,unmotivated,3.75,fall,left,easy,,492.4762680840012,493.86995212500005,correct,1.339578540999355,fall,left,5.0,500.6565155420012,,,,,
stim_set/hard-599.png,none.png,unmotivated,3.0,stand,right,hard,,500.65709137500016,502.7616723750016,incorrect,2.058244541998647,fall,left,4.0,508.0573499170005,,,,,
stim_set/hard-vcom=2-147.png,none.png,unmotivated,2.5,fall,left,hard,,508.0581721670005,510.8116787500003,incorrect,2.706860166999832,stand,right,3.0,515.6942190000009,,,,,
stim_set/hard-vcom=3-82.png,none.png,unmotivated,2.25,fall,left,hard,,515.6948327090013,520.7616912500016,incorrect,,,,,524.9050463750009,,,,,
stim_set/hard-vcom=4-75.png,none.png,unmotivated,2.5,fall,left,hard,,524.9056126670002,526.6202346250011,incorrect,1.6580531670006171,stand,right,4.0,531.3747686250008,,,,,
stim_set/hard-14.png,none.png,unmotivated,3.25,stand,right,hard,,531.3753274170012,533.7783440840011,correct,2.357050333999723,stand,right,2.0,540.5967507500009,,,,,
stim_set/easy-vcom=1-73.png,none.png,unmotivated,2.5,fall,left,easy,,540.5973588750003,543.2384638340009,correct,2.6000766659999504,fall,left,4.0,548.1103983750019,,,,,
stim_set/easy-vcom=3-142.png,none.png,unmotivated,2.75,fall,left,easy,,548.1109848750001,549.7781955840001,incorrect,1.6113572920003207,stand,right,3.0,558.6981890420011,,,,,
stim_set/easy-vcom=2-147.png,none.png,unmotivated,3.25,fall,left,easy,,558.698923375001,562.1367071670011,incorrect,3.384229208000761,stand,right,4.0,568.0843937920017,,,,,
stim_set/easy-vcom=3-15.png,none.png,unmotivated,2.25,fall,left,easy,,568.0849232920009,569.8952554170011,incorrect,1.7579022500012798,stand,right,3.0,574.4277805840012,,,,,
stim_set/hard-vcom=3-7.png,none.png,unmotivated,2.75,fall,left,hard,,574.4283203340001,579.3951369170009,incorrect,4.914609082999959,stand,right,4.0,584.3847402500014,,,,,
stim_set/hard-182.png,none.png,unmotivated,4.0,stand,right,hard,,584.3852831250006,588.2550027090001,correct,3.828664874999959,stand,right,4.0,594.5463165000001,,,,,
stim_set/hard-vcom=1-130.png,none.png,unmotivated,2.25,fall,left,hard,,594.5468500840016,598.6617246250007,correct,4.062992625000334,fall,left,3.0,605.382072792001,,,,,
stim_set/hard-vcom=3-110.png,none.png,unmotivated,3.0,fall,left,hard,,605.3826283340004,607.0465017920013,correct,1.6228540420015634,fall,left,5.0,612.4023629170007,,,,,
stim_set/hard-82.png,none.png,unmotivated,3.75,stand,right,hard,,612.4029473340015,614.9446566670013,correct,2.48703575000036,stand,right,3.0,621.2007426670008,,,,,
stim_set/hard-vcom=1-95.png,none.png,unmotivated,2.0,fall,left,hard,,621.2013240420001,626.2716314170011,incorrect,,,,,629.9267269170014,,,,,
stim_set/easy-vcom=1-12.png,none.png,unmotivated,2.0,fall,left,easy,,629.9272792500012,631.7199802090017,correct,1.7368007920013042,fall,left,5.0,637.3235747500003,,,,,
stim_set/hard-132.png,none.png,unmotivated,3.75,stand,right,hard,,637.3241593340008,640.1367507920004,correct,2.7600430000002234,stand,right,2.0,646.2724201670007,,,,,
stim_set/hard-40.png,none.png,unmotivated,3.0,stand,right,hard,,646.2729752500018,648.6866467500004,incorrect,2.358755249999376,fall,left,1.0,654.0983317500012,,,,,
stim_set/hard-280.png,none.png,unmotivated,2.25,stand,right,hard,,654.0989545840002,655.6949619170009,incorrect,1.5399271249989397,fall,left,3.0,660.2365843750013,,,,,
stim_set/easy-vcom=4-126.png,none.png,unmotivated,2.5,fall,left,easy,,660.2371393340018,663.3031445000015,correct,3.0089403330002824,fall,left,1.0,668.7260605420015,,,,,
stim_set/hard-402.png,none.png,unmotivated,2.5,stand,right,hard,,668.7266524170009,671.4449642090002,correct,2.6630882499994186,stand,right,2.0,676.5030179590012,,,,,
stim_set/hard-vcom=4-139.png,none.png,unmotivated,4.0,fall,left,hard,,676.5035830000015,679.7616315840005,correct,3.2060499590006657,fall,left,4.0,686.7302575420017,686.7305962920017,,,,
stim_set/easy-vcom=3-74.png,fall.png,cooperation,2.25,fall,left,easy,0.0001536250001663575,0.0007836249988031341,8.70580445899941,incorrect,3.6618855829983663,stand,right,5.0,13.556949416999489,,,,1.0124775419990328,
stim_set/hard-566.png,stand.png,cooperation,3.25,stand,right,hard,,13.557482124999295,20.473846083999888,correct,1.8781611250014976,stand,right,4.0,27.015060416999408,,,,14.567816624999976,
stim_set/hard-49.png,fall.png,cooperation,3.0,stand,right,hard,,27.0156335419997,34.922369124999015,correct,2.8632967089997683,stand,right,4.0,41.19550849999904,,,,28.02606079199905,
stim_set/hard-vcom=3-110.png,fall.png,cooperation,2.0,fall,left,hard,,41.19612304200018,47.46409029200004,correct,1.23552324999946,fall,left,5.0,51.922301499998866,,,,42.20641854200039,
stim_set/hard-367.png,stand.png,cooperation,3.75,stand,right,hard,,51.92287420899993,58.92231458399875,correct,1.958262083999216,stand,right,4.0,65.13637949999975,,,,52.933472917000465,
stim_set/hard-vcom=2-100.png,stand.png,cooperation,4.0,fall,left,hard,,65.13692433399957,72.58907883400025,correct,2.413044541999625,fall,left,2.0,79.673915166999,,,,66.14730204199985,
stim_set/hard-391.png,stand.png,cooperation,2.75,stand,right,hard,,79.6745566669997,87.40759012499984,correct,2.6987032079996425,stand,right,2.0,94.36137541700009,,,,80.68576379200022,
stim_set/hard-600.png,stand.png,cooperation,3.0,stand,right,hard,,94.36193466700024,101.89053299999979,incorrect,2.500504375000673,fall,left,5.0,108.57122708399947,,,,95.37234716700004,
stim_set/easy-vcom=1-87.png,fall.png,cooperation,2.5,fall,left,easy,,108.57175275000007,116.87192066699936,correct,3.25700229100039,fall,left,3.0,124.42525762500007,,,,109.5823314169993,
stim_set/hard-492.png,stand.png,cooperation,2.25,stand,right,hard,,124.42580199999978,132.28031820899923,correct,2.8145557919997373,stand,right,4.0,137.38079120899963,,,,125.43671791700035,
stim_set/hard-vcom=4-147.png,stand.png,cooperation,3.25,fall,left,hard,,137.38129599999957,144.45743629199933,correct,2.0381258340003114,fall,left,2.0,151.86933191699973,,,,138.39149483399888,
stim_set/hard-vcom=1-136.png,stand.png,cooperation,2.75,fall,left,hard,,151.86987937499907,159.5220449589997,incorrect,2.61357337499976,stand,right,4.0,165.53803520899964,,,,152.88039641700016,
stim_set/hard-vcom=1-130.png,fall.png,cooperation,2.5,fall,left,hard,,165.5385888339988,173.77425937499905,correct,3.2027802920001704,fall,left,2.0,179.54325962499937,,,,166.5487218750004,
stim_set/easy-vcom=2-20.png,fall.png,cooperation,4.0,fall,left,easy,,179.54378974999963,188.20745191700007,incorrect,3.6290159170002885,stand,right,2.0,194.61858104199928,,,,180.55429299999923,
stim_set/hard-177.png,stand.png,cooperation,2.0,stand,right,hard,,194.6191317920002,200.81384379199883,correct,1.1610073329993609,stand,right,4.0,206.23502233399998,,,,195.62961799999906,
stim_set/hard-78.png,stand.png,cooperation,2.25,stand,right,hard,,206.2355717089995,213.79915691699898,incorrect,2.5277269999987766,fall,left,2.0,220.14186491699908,,,,207.24604291699868,
stim_set/hard-564.png,fall.png,cooperation,2.25,stand,right,hard,,220.14248845899962,229.5072500419992,incorrect,4.3262361670003875,fall,left,2.0,234.8202552499988,,,,221.1532991669992,
stim_set/hard-402.png,stand.png,cooperation,3.75,stand,right,hard,,234.82088908399965,240.90771250000037,correct,1.0492862079991028,stand,right,5.0,247.69625799999997,,,,235.83154895900043,
stim_set/easy-vcom=2-147.png,stand.png,cooperation,3.0,fall,left,easy,,247.6968647499998,255.5723072919991,incorrect,2.8351594579999078,stand,right,4.0,261.86782649999986,,,,248.7070444170004,
stim_set/easy-538.png,fall.png,cooperation,2.5,stand,right,easy,,261.86845712499957,269.138797874999,correct,2.2336887090004893,stand,right,4.0,275.85133045899966,,,,262.87929270899986,
stim_set/hard-345.png,stand.png,cooperation,2.25,stand,right,hard,,275.8518748339993,282.40556654200014,correct,1.5137520839998615,stand,right,5.0,287.404531917,,,,276.8620768339988,
stim_set/hard-244.png,fall.png,cooperation,2.5,stand,right,hard,,287.4051029589991,294.4805999170003,incorrect,2.0339942919999885,fall,left,3.0,299.238792917,,,,288.4151111669998,
stim_set/hard-2.png,fall.png,cooperation,3.25,stand,right,hard,,299.2393888749993,307.73902170899964,incorrect,3.458641332999832,fall,left,5.0,313.31589575,,,,300.24964354199983,
stim_set/easy-vcom=1-73.png,fall.png,cooperation,2.5,fall,left,easy,,313.31652837500036,321.038827417,incorrect,2.690024249999624,stand,right,2.0,326.0541919999996,,,,314.3271416669995,
stim_set/hard-182.png,stand.png,cooperation,2.75,stand,right,hard,,326.05476333399935,334.4075297090003,correct,3.3245569169994265,stand,right,4.0,339.5755958339996,,,,327.06545854199976,
stim_set/easy-13.png,fall.png,cooperation,3.25,stand,right,easy,,339.57618958399866,348.6556198340004,correct,4.036751790999915,stand,right,3.0,354.45206008399873,,,,340.5866460420002,
stim_set/hard-vcom=1-3.png,fall.png,cooperation,2.25,fall,left,hard,,354.4527739169989,362.2654779169989,correct,2.777556541999729,fall,left,4.0,367.18905533399993,,,,355.46266729200033,
stim_set/easy-344.png,fall.png,cooperation,2.75,stand,right,easy,,367.1896096250002,376.038856666999,incorrect,3.8105976249989917,fall,left,3.0,381.2649507499992,,,,368.1995939999997,
stim_set/hard-vcom=4-80.png,stand.png,cooperation,4.0,fall,left,hard,,381.2655051250004,388.24713408400015,correct,1.9389574590004488,fall,left,4.0,395.0337863749992,,,,382.2763320840004,
stim_set/hard-vcom=2-137.png,fall.png,cooperation,2.25,fall,left,hard,,395.0343949589988,403.64068366699934,correct,3.572908792000817,fall,left,4.0,409.74111074999934,,,,396.04497583400007,
stim_set/hard-vcom=2-147.png,fall.png,cooperation,2.5,fall,left,hard,,409.74178029199896,418.48886712499916,correct,3.7147282089990767,fall,left,4.0,423.46977395899916,,,,410.75187333400027,
stim_set/hard-382.png,fall.png,cooperation,3.75,stand,right,hard,,423.4704474169994,433.1637922089994,correct,4.661198916999638,stand,right,4.0,440.321283416999,,,,424.4806434589991,
stim_set/hard-441.png,fall.png,cooperation,2.0,stand,right,hard,,440.3218568749999,449.5322892499989,incorrect,4.176986458000101,fall,left,4.0,453.8427979589997,,,,441.3323686249987,
stim_set/hard-570.png,fall.png,cooperation,2.0,stand,right,hard,,453.843552667,460.65740816699866,incorrect,1.7756527080000524,fall,left,5.0,465.72252070899964,,,,454.85380445900046,
stim_set/easy-vcom=2-3.png,stand.png,cooperation,3.75,fall,left,easy,,465.72305258400047,473.3827688749989,incorrect,2.6233980830002106,stand,right,3.0,480.68167145900037,,,,466.7335136250003,
stim_set/easy-280.png,fall.png,cooperation,3.0,stand,right,easy,,480.6822954170002,490.4803047089991,correct,4.760162541999307,stand,right,1.0,496.7559701249993,,,,481.69269725000055,
stim_set/easy-vcom=3-38.png,stand.png,cooperation,2.25,fall,left,easy,,496.7565517499988,505.3573395419989,incorrect,3.561609332999069,stand,right,4.0,510.1237445839997,,,,497.7670401670002,
stim_set/hard-vcom=1-95.png,fall.png,cooperation,2.5,fall,left,hard,,510.1243118749989,518.3970586249999,correct,3.2352176669992327,fall,left,4.0,523.510314666999,,,,511.13476637500025,
stim_set/hard-369.png,fall.png,cooperation,2.5,stand,right,hard,,523.5108875419992,529.805359,incorrect,1.262606667,fall,left,3.0,535.5659606249992,,,,524.5210236669991,
stim_set/hard-vcom=1-50.png,stand.png,cooperation,4.0,fall,left,hard,,535.5665272919996,542.9571048750004,correct,2.3527763330002927,fall,left,4.0,550.1794921669989,550.1799037919991,,,536.5770651250003,
stim_set/hard-321.png,fall.png,cooperation,2.25,stand,right,hard,553.2977622090002,553.2984479169992,560.6471411669992,correct,2.308305791999373,stand,right,4.0,565.2683268339987,,,,554.3099482919988,
stim_set/easy-vcom=3-142.png,fall.png,cooperation,3.25,fall,left,easy,,565.2690509999992,573.9721158749999,correct,3.661701500001072,fall,left,2.0,581.141546584,,,,566.279543708999,
stim_set/hard-316.png,fall.png,cooperation,2.5,stand,right,hard,,581.1421658340005,588.2737586250005,incorrect,2.0987678749988845,fall,left,5.0,593.118091417,,,,582.1525047089999,
stim_set/hard-vcom=2-20.png,stand.png,cooperation,2.0,fall,left,hard,,593.1186837919995,602.5471116669996,correct,4.384636582999518,fall,left,4.0,607.4815142089992,,,,594.1295491250003,
stim_set/easy-164.png,fall.png,cooperation,3.75,stand,right,easy,,607.4820546249994,614.9387646249997,correct,2.4134484579990385,stand,right,5.0,622.7533404999995,,,,608.4923578340004,
stim_set/easy-vcom=4-69.png,stand.png,cooperation,4.0,fall,left,easy,,622.75392775,630.9904027920003,incorrect,3.1980505420015106,stand,right,5.0,638.0343356249996,,,,623.7642789999992,
stim_set/hard-334.png,stand.png,cooperation,2.75,stand,right,hard,,638.0348858340002,644.9149409589991,incorrect,1.8479965000005905,fall,left,3.0,651.5378454589991,,,,639.0458608339994,
stim_set/hard-132.png,stand.png,cooperation,3.0,stand,right,hard,,651.538339875,661.2885159590005,incorrect,4.712127832999613,fall,left,4.0,666.6898072089989,,,,652.5489353749998,
stim_set/easy-77.png,fall.png,cooperation,2.5,stand,right,easy,,666.6903622089994,674.3485832499991,correct,2.6252707920011744,stand,right,5.0,679.3821741249994,,,,667.7002246669999,
stim_set/easy-vcom=1-12.png,stand.png,cooperation,2.25,fall,left,easy,,679.3827355840002,686.3888022919999,correct,1.9640248340001565,fall,left,5.0,691.0281292090002,,,,680.3932398750002,
stim_set/hard-214.png,stand.png,cooperation,3.25,stand,right,hard,,691.0288491669999,700.4803527089989,incorrect,4.408439917000578,fall,left,4.0,706.3088152090004,,,,692.0389629999991,
stim_set/hard-vcom=4-139.png,stand.png,cooperation,2.75,fall,left,hard,,706.3094466669991,714.0402347090003,correct,2.697062458999426,fall,left,4.0,719.7125575839999,,,,707.3204056249997,
stim_set/easy-vcom=4-126.png,fall.png,cooperation,2.5,fall,left,easy,,719.713103,728.3888155000003,correct,3.6331508750008656,fall,left,5.0,733.3575185419995,,,,720.7233187089987,
stim_set/hard-vcom=3-142.png,fall.png,cooperation,4.0,fall,left,hard,,733.3581124169997,739.6987239589998,correct,1.3015843749999476,fall,left,4.0,746.5062806669994,,,,734.368205458999,
stim_set/hard-vcom=4-75.png,fall.png,cooperation,2.0,fall,left,hard,,746.5068818339987,754.4403979589987,incorrect,2.8963754589985915,stand,right,4.0,758.8023907919996,,,,747.5173252919993,
stim_set/hard-vcom=4-142.png,stand.png,cooperation,2.25,fall,left,hard,,758.8029646670003,765.5656616670003,incorrect,1.7284022080002617,stand,right,5.0,770.3237797919992,,,,759.8133920839991,
stim_set/hard-549.png,stand.png,cooperation,2.25,stand,right,hard,,770.324402541999,779.6071149589989,incorrect,4.247574667000663,fall,left,4.0,784.131514708999,,,,771.3349660419991,
stim_set/hard-vcom=3-145.png,stand.png,cooperation,3.75,fall,left,hard,,784.1320437920003,791.8905493339988,correct,2.7294568329998583,fall,left,4.0,797.8716806249995,,,,785.1427941250003,
stim_set/easy-vcom=3-15.png,stand.png,cooperation,3.0,fall,left,easy,,797.8723066669991,804.6220440420003,incorrect,1.710512125000605,stand,right,5.0,809.906415874999,,,,798.8831059999992,
stim_set/hard-vcom=1-30.png,fall.png,cooperation,2.5,fall,left,hard,,809.9069645,816.9906001669988,correct,2.0501991250002902,fall,left,5.0,821.7814562499989,,,,810.9174142920001,
stim_set/hard-vcom=4-92.png,stand.png,cooperation,2.25,fall,left,hard,,821.782020958999,829.5388045839992,incorrect,2.7135697499998064,stand,right,4.0,834.3404934589997,,,,822.7928612920005,
stim_set/hard-21.png,stand.png,cooperation,2.5,stand,right,hard,,834.3410566669991,841.1737728749995,incorrect,1.7988133329999982,fall,left,3.0,846.5492167920003,,,,835.3513287089992,
stim_set/hard-280.png,stand.png,cooperation,3.25,stand,right,hard,,846.5497769590003,853.4302912499987,incorrect,1.8388106250004057,fall,left,2.0,859.0128355420003,,,,847.560065833999,
stim_set/hard-vcom=2-110.png,fall.png,cooperation,2.5,fall,left,hard,,859.0134962089996,866.5486455839999,correct,2.5017465420005465,fall,left,5.0,871.5255567089989,,,,860.023215666999,
stim_set/hard-vcom=3-7.png,fall.png,cooperation,2.75,fall,left,hard,,871.5262610419995,877.8967720419987,correct,1.3325416250008857,fall,left,5.0,884.0253890000004,,,,872.5363600839992,
stim_set/hard-vcom=3-34.png,stand.png,cooperation,3.25,fall,left,hard,,884.0259779999997,892.1151907089989,incorrect,3.049119667000923,stand,right,4.0,898.6126086669992,,,,885.0368548749992,
stim_set/easy-vcom=4-19.png,stand.png,cooperation,2.25,fall,left,easy,,898.6131450840003,905.1470757919997,incorrect,1.4902711670001736,stand,right,4.0,910.581313834,,,,899.6237860000001,
stim_set/hard-7.png,stand.png,cooperation,2.75,stand,right,hard,,910.5818395419992,919.698454292,incorrect,4.078157125000871,fall,left,4.0,924.6885452919996,,,,911.592625416999,
stim_set/easy-590.png,fall.png,cooperation,4.0,stand,right,easy,,924.6890960419987,933.4968276250003,correct,3.7659145000016,stand,right,5.0,939.666391334,,,,925.6991862089999,
stim_set/hard-82.png,stand.png,cooperation,2.25,stand,right,hard,,939.6669439590004,946.5574188339996,incorrect,1.8537627080004315,fall,left,4.0,951.4837610840004,,,,940.6775555839996,
stim_set/hard-vcom=4-23.png,fall.png,cooperation,3.0,fall,left,hard,,951.4843169590004,959.8303599169993,correct,3.307594457999585,fall,left,4.0,965.1461992089991,,,,952.4948096249992,
stim_set/hard-91.png,fall.png,cooperation,3.75,stand,right,hard,,965.1467464590004,972.2721292919997,incorrect,2.083525500000178,fall,left,5.0,978.3920217920004,,,,966.156894709,
stim_set/hard-599.png,fall.png,cooperation,2.0,stand,right,hard,,978.3925687499997,985.3486825420005,incorrect,1.9289069999995263,fall,left,5.0,990.4097270419987,,,,979.4026910419998,
stim_set/easy-411.png,stand.png,cooperation,2.0,stand,right,easy,,990.4103457500003,996.5885847089993,correct,1.135941290998744,stand,right,5.0,1001.2660935000004,,,,991.4208982500003,
stim_set/easy-vcom=1-145.png,stand.png,cooperation,3.75,fall,left,easy,,1001.2666343339987,1007.0720386249997,correct,0.7645106660002057,fall,left,1.0,1013.688334417,,,,1002.2770464169987,
stim_set/hard-40.png,stand.png,cooperation,3.0,stand,right,hard,,1013.6888679589991,1020.9134543749988,correct,2.1838830840006267,stand,right,4.0,1026.5786900000003,,,,1014.698994167,
stim_set/hard-vcom=2-16.png,stand.png,cooperation,2.25,fall,left,hard,,1026.579245084,1033.9487136249988,incorrect,2.3298324169991247,stand,right,5.0,1038.5487218340004,,,,1027.5895358750004,
stim_set/hard-14.png,fall.png,cooperation,2.5,stand,right,hard,,1038.5493119169987,1044.5135775420003,incorrect,0.9322179999999208,fall,left,5.0,1049.7416560419988,,,,1039.5597887089991,
stim_set/hard-vcom=3-82.png,fall.png,cooperation,2.5,fall,left,hard,,1049.7422066669988,1057.3220273339994,correct,2.5395295409998653,fall,left,4.0,1062.245470209,,,,1050.7522693749997,
stim_set/easy-vcom=2-94.png,stand.png,cooperation,4.0,fall,left,easy,,1062.246085041999,1069.2218991249993,correct,1.935976374999882,fall,left,2.0,1076.3556300839991,1076.3559531669998,,,1063.2568127089999,
stim_set/easy-vcom=3-74.png,fall.png,competition,2.25,fall,left,easy,0.00013441700139082968,0.0007585420025861822,9.014748875000805,incorrect,3.9728392090000852,stand,right,5,13.693080500001088,,,,1.0139444170017669,
stim_set/hard-vcom=1-136.png,fall.png,competition,3.25,fall,left,hard,,13.693671000000904,21.171357084000192,incorrect,2.4381460000004154,stand,right,4,26.96508250000261,,,,14.703814959000738,
stim_set/hard-369.png,fall.png,competition,3.0,stand,right,hard,,26.965629417001765,34.13806983399991,correct,2.137477707998187,stand,right,5,40.41961741700288,,,,27.97607858400079,
stim_set/hard-vcom=2-147.png,stand.png,competition,2.0,fall,left,hard,,40.42021454200221,46.987876209001115,correct,1.5329939160001231,fall,left,5,51.67522108400226,,,,41.4310549590009,
stim_set/hard-vcom=2-20.png,stand.png,competition,3.75,fall,left,hard,,51.67578041700108,59.279444292002154,correct,2.5599930839998706,fall,left,5,65.33704316700096,,,,52.68637816699993,
stim_set/easy-vcom=1-73.png,fall.png,competition,4.0,fall,left,easy,,65.33755725000083,73.55456887500259,correct,3.1827706250005576,fall,left,3,81.14682629200252,,,,66.34756183400168,
stim_set/hard-132.png,fall.png,competition,2.75,stand,right,hard,,81.14759350000168,90.89632091699968,correct,4.7084219999997,stand,right,3,97.44130837500052,,,,82.15816512500169,
stim_set/easy-vcom=2-20.png,stand.png,competition,3.0,fall,left,easy,,97.4418597920012,105.34629083400068,correct,2.8649127499993483,fall,left,5,111.71539466700051,,,,98.45239795900125,
stim_set/hard-280.png,fall.png,competition,2.5,stand,right,hard,,111.71596675000183,118.98123925000255,incorrect,2.226181000001816,fall,left,4,124.90600258400082,,,,112.72652854199987,
stim_set/hard-600.png,fall.png,competition,2.25,stand,right,hard,,124.90661891700074,133.70457758400153,incorrect,3.7636846669993247,fall,left,4,139.06791358400005,,,,125.9172373750007,
stim_set/hard-334.png,stand.png,competition,3.25,stand,right,hard,,139.06848816700222,149.0460855420024,incorrect,4.939439207999385,fall,left,5,154.532903000003,,,,140.07895216700126,
stim_set/easy-vcom=1-12.png,stand.png,competition,2.75,fall,left,easy,,154.53350366700033,163.48778908399981,correct,3.9094034999980067,fall,left,5,168.6408655840023,,,,155.54460083400045,
stim_set/easy-vcom=2-147.png,fall.png,competition,2.5,fall,left,easy,,168.6414332500026,175.72090562500307,correct,2.038246624997555,fall,left,4,181.1581096250011,,,,169.65158295900255,
stim_set/easy-590.png,stand.png,competition,4.0,stand,right,easy,,181.1587460840019,187.53777400000035,correct,1.3331795830017654,stand,right,5,193.81888429200262,,,,182.16952287499953,
stim_set/hard-91.png,fall.png,competition,2.0,stand,right,hard,,193.81947691700043,200.581095542002,incorrect,1.7250317500001984,fall,left,3,205.54636408400256,,,,194.8293142500006,
stim_set/hard-vcom=1-95.png,stand.png,competition,2.25,fall,left,hard,,205.5470046670016,213.89610554200044,incorrect,3.3099267079996935,stand,right,3,219.3077913340021,,,,206.55754633400284,
stim_set/hard-402.png,stand.png,competition,2.25,stand,right,hard,,219.3084292090025,226.67286729199986,incorrect,2.325482958000066,fall,left,5,231.36423149999973,,,,220.31954525000037,
stim_set/hard-49.png,fall.png,competition,3.75,stand,right,hard,,231.36477887500223,239.27108037500147,correct,2.860766459001752,stand,right,5,246.19481354200252,,,,232.37538520900125,
stim_set/easy-vcom=4-69.png,stand.png,competition,3.0,fall,left,easy,,246.19534145900252,253.37105425000118,correct,2.1324259169996367,fall,left,5,258.6743922500027,,,,247.20558120900023,
stim_set/easy-vcom=3-38.png,stand.png,competition,2.5,fall,left,easy,,258.6749804589999,266.0293589590001,correct,2.3108669579996786,fall,left,5,271.3270525000007,,,,259.6852709590021,
stim_set/hard-vcom=3-7.png,fall.png,competition,2.25,fall,left,hard,,271.3276858749996,278.79602562500077,correct,2.4284706250000454,fall,left,3,283.964528667002,,,,272.33770016700146,
stim_set/easy-vcom=3-142.png,stand.png,competition,2.5,fall,left,easy,,283.96505995900225,290.6710680840006,correct,1.6644608749993495,fall,left,4,295.3746694170004,,,,284.9752916670004,
stim_set/hard-345.png,stand.png,competition,3.25,stand,right,hard,,295.37522845900094,303.65431220900064,correct,3.2392019590006385,stand,right,4,309.8126227920002,,,,296.38530025,
stim_set/easy-164.png,stand.png,competition,2.5,stand,right,easy,,309.8131620839995,317.8559387500027,correct,3.0026959999995597,stand,right,4,323.215007042003,,,,310.824061000003,
stim_set/hard-2.png,fall.png,competition,2.75,stand,right,hard,,323.2155592500021,330.8208537089995,incorrect,2.562747624997428,fall,left,3,336.34422833400095,,,,324.22614875,
stim_set/hard-vcom=4-75.png,stand.png,competition,3.25,fall,left,hard,,336.34480958399945,342.9960083750011,correct,1.607735417001095,fall,left,5,348.5641087090007,,,,337.3551549590011,
stim_set/hard-40.png,stand.png,competition,2.25,stand,right,hard,,348.56465500000195,358.6210169590013,incorrect,,,,,362.5536907500027,,,,349.5751843750004,
stim_set/hard-vcom=2-100.png,fall.png,competition,2.75,fall,left,hard,,362.55430020900167,368.92931683400093,correct,1.3345904169982532,fall,left,4,373.94440316700275,,,,363.56455245899997,
stim_set/hard-vcom=3-145.png,stand.png,competition,4.0,fall,left,hard,,373.9449437500007,381.2226376670005,correct,2.2477272910000465,fall,left,5,388.0428788749996,,,,374.9559184589998,
stim_set/hard-82.png,fall.png,competition,2.25,stand,right,hard,,388.04344666700126,394.52088570900014,incorrect,1.4349250419982127,fall,left,5,398.892529834,,,,389.053922334002,
stim_set/easy-vcom=2-3.png,fall.png,competition,2.5,fall,left,easy,,398.89307433400245,406.5206378340008,incorrect,2.5866292090031493,stand,right,4,411.28662091700244,,,,399.90297575000295,
stim_set/hard-566.png,fall.png,competition,3.75,stand,right,hard,,411.28719033400193,419.50591854199956,incorrect,3.1787379160014098,fall,left,3,425.65793012500217,,,,412.29761229200085,
stim_set/hard-214.png,stand.png,competition,2.0,stand,right,hard,,425.65853375000006,432.86256850000063,incorrect,2.1605220409983303,fall,left,5,437.3861875420007,,,,426.66895875000046,
stim_set/easy-vcom=4-19.png,fall.png,competition,2.0,fall,left,easy,,437.38679799999954,444.0126193750002,incorrect,1.5822572079996462,stand,right,4,448.8666564590021,,,,438.3976628750024,
stim_set/easy-280.png,fall.png,competition,3.75,stand,right,easy,,448.867367042003,455.6958250839998,correct,1.7889087090006797,stand,right,5,461.84105825000006,,,,449.8778664170022,
stim_set/hard-321.png,stand.png,competition,3.0,stand,right,hard,,461.84162958399975,468.1372856670023,incorrect,1.2569484159976128,fall,left,5,473.4673482090002,,,,462.8520301250028,
stim_set/hard-182.png,stand.png,competition,2.25,stand,right,hard,,473.4679461250016,480.187580875001,incorrect,1.6855498749973776,fall,left,5,484.8846679590024,,,,474.4780317090008,
stim_set/hard-vcom=3-34.png,stand.png,competition,2.5,fall,left,hard,,484.88531091700133,492.0626725000002,correct,2.1326191250009288,fall,left,4,496.91867658400224,,,,485.89584837500297,
stim_set/easy-538.png,fall.png,competition,2.5,stand,right,easy,,496.9192295840003,503.40609970900186,correct,1.4535237919990323,stand,right,4,508.3184111670016,,,,497.92946241699974,
stim_set/hard-244.png,stand.png,competition,4.0,stand,right,hard,,508.3189501670022,514.9206413339998,incorrect,1.5582346669980325,fall,left,4,521.362353792003,521.362688250003,,,509.32909020900115,
stim_set/easy-13.png,stand.png,competition,2.25,stand,right,easy,530.7942391670003,530.7949726250008,538.3895680000023,correct,2.553180667000561,stand,right,5,543.8624717090024,,,,531.8071555420029,
stim_set/hard-vcom=4-23.png,stand.png,competition,3.25,fall,left,hard,,543.8631921670021,550.0470154169998,correct,1.149076875000901,fall,left,5,555.7560466249997,,,,544.8738237500002,
stim_set/hard-vcom=4-80.png,fall.png,competition,2.5,fall,left,hard,,555.756603834001,562.7122160420004,incorrect,1.9123885420012812,stand,right,3,567.5421852500003,,,,556.7664868749998,
stim_set/easy-77.png,stand.png,competition,2.0,stand,right,easy,,567.5427492090021,574.4708162500028,correct,1.8879109579975193,stand,right,4,578.9534861669999,,,,568.5532009590024,
stim_set/hard-177.png,fall.png,competition,3.75,stand,right,hard,,578.9542220000003,587.4958226670024,correct,3.5082445419975556,stand,right,3,594.2003898340008,,,,579.9641050000027,
stim_set/easy-vcom=2-94.png,fall.png,competition,4.0,fall,left,easy,,594.2011259169994,601.4791594170019,incorrect,2.23885916600193,stand,right,4,607.7301857920029,,,,595.2116409170012,
stim_set/hard-vcom=1-30.png,fall.png,competition,2.75,fall,left,hard,,607.7307211250009,615.4541317920011,incorrect,2.684789750001073,stand,right,4,621.024525959001,,,,608.7411840420027,
stim_set/easy-vcom=3-15.png,fall.png,competition,3.0,fall,left,easy,,621.0250906250003,627.7540798750015,incorrect,1.6886649589978333,stand,right,4,633.0977999589995,,,,622.0352860000021,
stim_set/hard-vcom=1-3.png,stand.png,competition,2.5,fall,left,hard,,633.0984344589997,639.2390557920007,correct,1.1044564170006197,fall,left,5,643.9899457920001,,,,634.1089157919996,
stim_set/easy-411.png,stand.png,competition,2.25,stand,right,easy,,643.9905105420003,652.1706190840014,correct,3.1367944999983592,stand,right,4,657.4445121669996,,,,645.0006605840026,
stim_set/easy-344.png,fall.png,competition,3.25,stand,right,easy,,657.4451473750014,664.5206595840027,correct,2.0367715840002347,stand,right,5,670.3718712920017,,,,658.4554501670027,
stim_set/hard-vcom=3-142.png,fall.png,competition,2.75,fall,left,hard,,670.3724476250027,677.0790021249995,incorrect,1.6628694999999425,stand,right,4,682.4726765420019,,,,671.3825817920006,
stim_set/hard-vcom=3-110.png,stand.png,competition,2.5,fall,left,hard,,682.4731962500009,689.6393507499997,correct,2.136885457999597,fall,left,4,695.3193940000019,,,,683.4835829170006,
stim_set/hard-441.png,stand.png,competition,4.0,stand,right,hard,,695.3199900840009,702.1956617920005,incorrect,1.838951375000761,fall,left,3,712.6592937090027,,,,696.3300405420014,
stim_set/hard-570.png,stand.png,competition,2.0,stand,right,hard,,712.659847875002,721.4623267919997,incorrect,3.757800750001479,fall,left,4,726.7475445420023,,,,713.6706655000016,
stim_set/hard-492.png,fall.png,competition,2.25,stand,right,hard,,726.7480924170013,734.030609292,correct,2.2467677919994458,stand,right,4,738.7721843750005,,,,727.7584192089998,
stim_set/hard-vcom=3-82.png,stand.png,competition,2.25,fall,left,hard,,738.7727876669996,745.728659417,correct,1.9131113340008596,fall,left,4,750.2438570840022,,,,739.7835810420002,
stim_set/hard-vcom=1-50.png,fall.png,competition,3.75,fall,left,hard,,750.2444055420019,757.1538844170027,correct,1.8658959580025112,fall,left,5,763.8715962919996,,,,751.2545555840006,
stim_set/hard-vcom=2-137.png,stand.png,competition,3.0,fall,left,hard,,763.8721778340005,771.0956507920018,correct,2.1854984999990847,fall,left,4,777.1547043339997,,,,764.882615417002,
stim_set/hard-vcom=4-147.png,stand.png,competition,2.5,fall,left,hard,,777.1552386250005,783.6622242090016,correct,1.4622416669990344,fall,left,5,788.2138892920011,,,,778.1660593750021,
stim_set/hard-599.png,stand.png,competition,2.25,stand,right,hard,,788.2144685420026,795.0621052919996,incorrect,1.8141447079979116,fall,left,5,799.9884172090024,,,,789.2253434170016,
stim_set/hard-vcom=4-139.png,fall.png,competition,2.5,fall,left,hard,,799.9889149590017,806.7472110840026,correct,1.7231317079967994,fall,left,5,811.6381073340017,,,,800.9995263340024,
stim_set/hard-vcom=1-130.png,fall.png,competition,3.25,fall,left,hard,,811.6386843340006,818.4788424170001,incorrect,1.8007754589998513,stand,right,3,824.0440895840002,,,,812.6493839169998,
stim_set/easy-vcom=1-87.png,stand.png,competition,2.5,fall,left,easy,,824.0446189169998,831.4557070420014,correct,2.372847750000801,fall,left,4,838.4400906250012,,,,825.0553969590001,
stim_set/hard-549.png,stand.png,competition,2.75,stand,right,hard,,838.4406967089999,845.5202959170019,incorrect,2.03803066600085,fall,left,4,851.4957707920003,,,,839.4512715000019,
stim_set/hard-391.png,stand.png,competition,3.25,stand,right,hard,,851.4963405420021,857.8955567500016,incorrect,1.3596179580017633,fall,left,5,863.6041239170008,,,,852.5068494590014,
stim_set/hard-vcom=2-110.png,fall.png,competition,2.25,fall,left,hard,,863.6049325420026,871.4135424590022,incorrect,2.775748833002581,stand,right,3,876.9655940000011,,,,864.6147705000003,
stim_set/hard-vcom=4-142.png,fall.png,competition,2.75,fall,left,hard,,876.966217125002,883.5953597920015,incorrect,1.5884738749991811,stand,right,5,888.9355004170029,,,,877.9767882500018,
stim_set/hard-564.png,stand.png,competition,4.0,stand,right,hard,,888.9360383340027,896.3621112920009,correct,2.3833713329986495,stand,right,5,902.9143105840012,,,,889.9462912500021,
stim_set/hard-vcom=2-16.png,stand.png,competition,2.25,fall,left,hard,,902.9149776250015,910.2956599170029,correct,2.3363384580006823,fall,left,5,914.6754357919999,,,,903.9256431670001,
stim_set/easy-vcom=4-126.png,fall.png,competition,3.0,fall,left,easy,,914.6759542920008,922.2538108750014,incorrect,2.534236082999996,stand,right,4,928.5721317090029,,,,915.6861100000024,
stim_set/hard-vcom=4-92.png,fall.png,competition,3.75,fall,left,hard,,928.5726480000012,937.913352292002,incorrect,4.3016275000009045,stand,right,2,944.0166492090029,,,,929.5830240840005,
stim_set/hard-7.png,fall.png,competition,2.0,stand,right,hard,,944.017326250003,951.9056846670028,incorrect,2.8482448750000913,fall,left,5,956.3377106250009,,,,945.0274978750022,
stim_set/hard-382.png,fall.png,competition,2.0,stand,right,hard,,956.3382012500006,964.7890621250008,incorrect,3.4219947080018756,fall,left,4,969.4502139169999,,,,957.3484668750025,
stim_set/hard-316.png,stand.png,competition,3.75,stand,right,hard,,969.4507690000028,976.1037734590027,incorrect,1.6136483750015032,fall,left,5,982.2888279590006,,,,970.4611093340027,
stim_set/hard-367.png,fall.png,competition,3.0,stand,right,hard,,982.28941175,990.6219425420022,incorrect,3.2978839590032294,fall,left,4,996.0734210420014,,,,983.2993679169995,
stim_set/hard-21.png,stand.png,competition,2.25,stand,right,hard,,996.0740737920023,1002.6287919170027,incorrect,1.514227125000616,fall,left,5,1007.4037087500001,,,,997.0854123339996,
stim_set/hard-78.png,fall.png,competition,2.5,stand,right,hard,,1007.404260542,1016.5137134590004,incorrect,4.0724940830004925,fall,left,5,1022.2634856250006,,,,1008.4147760420019,
stim_set/easy-vcom=1-145.png,stand.png,competition,2.5,fall,left,easy,,1022.2640514590021,1028.4803062089995,correct,1.179026875001,fall,left,5,1033.0936317500018,,,,1023.2743336250023,
stim_set/hard-14.png,fall.png,competition,4.0,stand,right,hard,,1033.09435725,1041.0720110420007,incorrect,2.9489792919994215,fall,left,5,1047.5055916670026,1047.5059369590017,,,1034.1043561670012,
stim_set/hard-410.png,stand.png,cooperation,3.75,stand,right,hard,2.6249999791616574e-06,0.002310416000909754,9.449608250000892,correct,4.428112666000743,stand,right,3.0,18.4363361249998,18.436854833000325,,,1.0172602500006178,
stim_set/hard-188.png,stand.png,competition,4.0,stand,right,hard,3.1249983294401318e-06,0.0021999999989930075,7.620598042001802,correct,2.6039311249987804,stand,right,4,14.842381499998737,14.842904666998948,,,1.015359000000899,
