towers,bet,condition,iti,corr_choice,corr_key,difficulty,block_start,trial_start,stim_on,acc,rt,part_choice,part_key,confidence,trial_end,block_end,updated_score
stim_set/hard-600.png,none.png,unmotivated,2.5,stand,right,hard,6.624999514315277e-06,0.006953915995836724,1.2989537499961443,incorrect,1.2472356669968576,fall,left,4,7.520426582996151,,240.0
stim_set/hard-vcom=4-147.png,none.png,unmotivated,2.25,fall,left,hard,,7.521649207999872,9.139172208000673,correct,1.5605628340053954,fall,left,4,15.90979712499393,,
stim_set/easy-vcom=1-12.png,none.png,unmotivated,2.0,fall,left,easy,,15.910374040999159,17.555742582997482,correct,1.5890037089993712,fall,left,5,22.31317329099693,,
stim_set/hard-492.png,none.png,unmotivated,2.0,stand,right,hard,,22.31372370799363,23.96548941599758,incorrect,1.6025226659985492,fall,left,4,29.154032457998255,,
stim_set/hard-vcom=2-137.png,none.png,unmotivated,3.0,fall,left,hard,,29.15466020799795,31.147428790995036,correct,1.940316125001118,fall,left,4,39.01887049999641,,
stim_set/easy-vcom=2-147.png,none.png,unmotivated,3.25,fall,left,easy,,39.019394040995394,41.9389677079962,correct,2.865201958004036,fall,left,3,48.36432008299744,,
stim_set/easy-vcom=1-73.png,none.png,unmotivated,2.5,fall,left,easy,,48.364937499994994,49.94742533299723,correct,1.5354976250018808,fall,left,2,55.677395374994376,,
stim_set/easy-344.png,none.png,unmotivated,4.0,stand,right,easy,,55.67818604099739,56.914225458000146,correct,1.183894000001601,stand,right,5,64.46693754099397,,
stim_set/easy-vcom=4-126.png,none.png,unmotivated,2.5,fall,left,easy,,64.46750616599456,65.66395249999914,incorrect,1.1402250829996774,stand,right,4,71.574089791,,
stim_set/hard-vcom=2-147.png,none.png,unmotivated,2.5,fall,left,hard,,71.57473804099573,74.04028899999685,correct,2.4241451670022798,fall,left,3,81.3420882499995,,
stim_set/hard-132.png,none.png,unmotivated,3.75,stand,right,hard,,81.34262512499845,84.13072183299664,incorrect,2.7357682090005255,fall,left,2,92.2262110409938,,
stim_set/hard-vcom=3-7.png,none.png,unmotivated,2.75,fall,left,hard,,92.2269857909996,94.21394458299619,correct,1.9349953749988344,fall,left,3,100.67281337500026,,
stim_set/hard-391.png,none.png,unmotivated,2.25,stand,right,hard,,100.67335466599616,102.46393966599862,incorrect,1.738864167004067,fall,left,3,108.28445904099499,,
stim_set/hard-402.png,none.png,unmotivated,2.5,stand,right,hard,,108.28507787499984,110.11537083299481,incorrect,1.7797111659965594,fall,left,4,115.58163204099401,,
stim_set/easy-13.png,none.png,unmotivated,2.5,stand,right,easy,,115.58217608300038,116.94723895799689,correct,1.3085481250018347,stand,right,4,122.69381474999682,,
stim_set/hard-367.png,none.png,unmotivated,2.5,stand,right,hard,,122.69436666599358,125.31542391599942,incorrect,2.573474000004353,fall,left,1,132.10993116600002,,
stim_set/easy-vcom=2-20.png,none.png,unmotivated,2.25,fall,left,easy,,132.11058766600036,134.52237770799547,correct,2.3603001669980586,fall,left,2,139.7392367909997,,
stim_set/hard-316.png,none.png,unmotivated,2.0,stand,right,hard,,139.73979049999616,142.13063887499447,correct,2.33886758400331,stand,right,2,146.57700608299638,,
stim_set/hard-82.png,none.png,unmotivated,3.75,stand,right,hard,,146.5775089999952,150.07219308299682,incorrect,3.439478667001822,fall,left,2,157.20024624999496,,
stim_set/hard-564.png,none.png,unmotivated,3.75,stand,right,hard,,157.2008793749992,159.07468241599418,incorrect,1.8226384590016096,fall,left,2,165.86299612499715,,
stim_set/hard-vcom=3-142.png,none.png,unmotivated,3.25,fall,left,hard,,165.86355970799923,168.44051079099881,correct,2.5258758749987464,fall,left,2,176.29175237500021,,
stim_set/hard-566.png,none.png,unmotivated,3.75,stand,right,hard,,176.29231608299597,177.97383220799384,incorrect,1.6297849159964244,fall,left,2,184.15907804099697,,
stim_set/hard-280.png,none.png,unmotivated,2.25,stand,right,hard,,184.15962724999554,186.4907045,incorrect,2.2799269999959506,fall,left,2,191.34621445799712,,
stim_set/hard-vcom=3-145.png,none.png,unmotivated,2.75,fall,left,hard,,191.34676866600057,194.36547691599844,incorrect,2.9776437920008902,stand,right,2,199.59149470799457,,
stim_set/easy-vcom=2-94.png,none.png,unmotivated,2.75,fall,left,easy,,199.5920599999954,202.29050620799535,correct,2.6517498749963124,fall,left,2,208.7045479160006,,
stim_set/hard-vcom=4-80.png,none.png,unmotivated,3.75,fall,left,hard,,208.70512366599723,210.6222298749999,correct,1.859599084004003,fall,left,5,218.30427024999517,,
stim_set/hard-599.png,none.png,unmotivated,3.0,stand,right,hard,,218.304843291,220.0986590409957,incorrect,1.7535313749976922,fall,left,5,225.7924537910003,,
stim_set/hard-182.png,none.png,unmotivated,4.0,stand,right,hard,,225.7930107909997,228.47216912499425,incorrect,2.6326519590002135,fall,left,3,235.38462016599806,,
stim_set/hard-570.png,none.png,unmotivated,2.25,stand,right,hard,,235.38516262499616,237.28044720799517,incorrect,1.8385319580047508,fall,left,4,242.83637624999392,,
stim_set/easy-vcom=4-69.png,none.png,unmotivated,2.25,fall,left,easy,,242.83697370799928,244.22202266599925,incorrect,1.3296885000017937,stand,right,5,249.12277837500005,,
stim_set/easy-280.png,none.png,unmotivated,3.0,stand,right,easy,,249.12332870799582,250.7489632500001,correct,1.5784505410047132,stand,right,5,258.2020044999954,,
stim_set/hard-2.png,none.png,unmotivated,2.75,stand,right,hard,,258.2026477909967,261.0469004579936,correct,2.7902769169959356,stand,right,3,266.1181496249992,,
stim_set/hard-vcom=2-100.png,none.png,unmotivated,3.25,fall,left,hard,,266.11870474999887,267.7304430410004,correct,1.5587654999981169,fall,left,3,274.38988450000033,,
stim_set/hard-177.png,none.png,unmotivated,2.0,stand,right,hard,,274.39059187499515,276.9972037499974,incorrect,2.5598392499960028,fall,left,3,281.577027290994,,
stim_set/hard-244.png,none.png,unmotivated,3.25,stand,right,hard,,281.5775663749955,285.98220070800016,correct,4.353080332999525,stand,right,2,291.93088420799904,,
stim_set/easy-538.png,none.png,unmotivated,2.5,stand,right,easy,,291.93139941599657,292.9569975409977,correct,0.9787024999968708,stand,right,5,297.9490023749968,,
stim_set/easy-vcom=3-15.png,none.png,unmotivated,2.25,fall,left,easy,,297.94956974999513,300.63889008299884,correct,2.6368755830044392,fall,left,3,306.1167651659998,,
stim_set/easy-vcom=1-145.png,none.png,unmotivated,3.75,fall,left,easy,,306.1173482909944,307.79067791599664,correct,1.6239603330031969,fall,left,2,314.094501915999,,
stim_set/hard-vcom=4-92.png,none.png,unmotivated,2.75,fall,left,hard,,314.0950578329939,316.0636947909952,correct,1.911876083999232,fall,left,4,321.36726037499466,,
stim_set/easy-vcom=1-87.png,none.png,unmotivated,3.0,fall,left,easy,,321.36781991599855,324.33875179099414,correct,2.9148884169990197,fall,left,3,330.67452583299746,330.67484787499416,
stim_set/easy-vcom=3-142.png,none.png,unmotivated,2.75,fall,left,easy,364.7045787909956,364.7053740409974,368.58207070799835,correct,3.826803583004221,fall,left,2,374.09538408299704,,
stim_set/easy-590.png,none.png,unmotivated,2.5,stand,right,easy,,374.09595795799396,376.46340541599784,correct,2.31125045799854,stand,right,3,382.28676279099454,,
stim_set/hard-78.png,none.png,unmotivated,2.25,stand,right,hard,,382.2873265409944,383.7152238749986,incorrect,1.378656458997284,fall,left,3,389.6752105409978,,
stim_set/hard-214.png,none.png,unmotivated,3.25,stand,right,hard,,389.67579674999433,391.44668349999847,incorrect,1.7149608339968836,fall,left,3,397.8527543329983,,
stim_set/hard-49.png,none.png,unmotivated,2.25,stand,right,hard,,397.8533984999958,399.871905041,incorrect,1.9606905000036932,fall,left,4,404.43458458299574,,
stim_set/hard-441.png,none.png,unmotivated,2.5,stand,right,hard,,404.43512133299373,406.8817007499965,incorrect,2.4004617080063326,fall,left,3,412.5982043749973,,
stim_set/hard-369.png,none.png,unmotivated,2.0,stand,right,hard,,412.5988362499993,414.0802274999951,correct,1.4347506249978323,stand,right,4,419.57787391599413,,
stim_set/hard-345.png,none.png,unmotivated,2.5,stand,right,hard,,419.5784864159941,422.5384697909976,correct,2.908419290994061,stand,right,2,427.78183512499527,,
stim_set/easy-vcom=3-38.png,none.png,unmotivated,2.5,fall,left,easy,,427.7824093329982,429.58190079099586,correct,1.748138333998213,fall,left,2,435.38176862499677,,
stim_set/hard-vcom=2-16.png,none.png,unmotivated,2.5,fall,left,hard,,435.38234429099975,437.14668804099347,correct,1.7066651250061113,fall,left,3,441.9408016249945,,
stim_set/easy-vcom=3-74.png,none.png,unmotivated,2.25,fall,left,easy,,441.9413195409943,443.6905227499956,correct,1.698266749997856,fall,left,3,450.484168707997,,
stim_set/easy-vcom=2-3.png,none.png,unmotivated,4.0,fall,left,easy,,450.4847127079993,453.72169487499923,correct,3.182149667001795,fall,left,4,460.25625858299463,,
stim_set/hard-vcom=4-75.png,none.png,unmotivated,2.5,fall,left,hard,,460.2568731249994,461.78198445799353,correct,1.4740624590049265,fall,left,4,466.7249323329961,,
stim_set/hard-vcom=3-34.png,none.png,unmotivated,2.0,fall,left,hard,,466.7254764579993,470.03206124999997,correct,3.253763041997445,fall,left,3,475.473511958,,
stim_set/easy-164.png,none.png,unmotivated,4.0,stand,right,easy,,475.4741385409943,477.0384729159996,correct,1.5078797079986543,stand,right,4,484.9225760409972,,
stim_set/hard-382.png,none.png,unmotivated,2.75,stand,right,hard,,484.9231724159981,487.104661749996,incorrect,2.1357362499984447,fall,left,3,492.84850362499856,,
stim_set/hard-vcom=1-130.png,none.png,unmotivated,2.25,fall,left,hard,,492.8490807909984,496.923515208,incorrect,4.024687334000191,stand,right,3,502.3720040409971,,
stim_set/easy-411.png,none.png,unmotivated,4.0,stand,right,easy,,502.3725930829969,503.38849687499896,correct,0.9595937080011936,stand,right,5,510.20933449999575,,
stim_set/hard-40.png,none.png,unmotivated,3.0,stand,right,hard,,510.2100499999942,511.55516433299636,incorrect,1.2901465420000022,fall,left,5,519.2660094579987,,
stim_set/hard-vcom=4-139.png,none.png,unmotivated,4.0,fall,left,hard,,519.2665578329979,523.2049789159937,correct,3.8871204589959234,fall,left,3,529.8094176249942,,
stim_set/hard-vcom=1-30.png,none.png,unmotivated,3.75,fall,left,hard,,529.8100199159962,531.0815156249955,correct,1.2260647080038325,fall,left,5,537.2938296249995,,
stim_set/hard-vcom=3-82.png,none.png,unmotivated,2.25,fall,left,hard,,537.2943206249984,539.4383635829945,correct,2.089106792001985,fall,left,5,544.1863924579957,,
stim_set/hard-321.png,none.png,unmotivated,2.25,stand,right,hard,,544.186948290997,545.6316331249982,incorrect,1.3981835410013446,fall,left,5,550.3621057079945,,
stim_set/hard-vcom=2-20.png,none.png,unmotivated,2.25,fall,left,hard,,550.3626665409975,552.0799501250003,correct,1.6618314590014052,fall,left,4,556.6830571659957,,
stim_set/hard-vcom=1-95.png,none.png,unmotivated,2.0,fall,left,hard,,556.6836165409986,559.7571082079958,correct,3.0262146660024882,fall,left,4,565.2339576249942,,
stim_set/hard-vcom=4-23.png,none.png,unmotivated,2.5,fall,left,hard,,565.2345196249953,567.7216449159969,correct,2.434447874999023,fall,left,3,574.3837856659957,,
stim_set/hard-334.png,none.png,unmotivated,2.0,stand,right,hard,,574.3843217499962,576.3216546249969,incorrect,1.8870343750022585,fall,left,5,580.8083183329945,,
stim_set/hard-14.png,none.png,unmotivated,3.25,stand,right,hard,,580.808876957999,584.9382140829985,incorrect,4.083547834001365,fall,left,5,591.3220717909935,,
stim_set/hard-vcom=1-136.png,none.png,unmotivated,2.5,fall,left,hard,,591.3226501249956,594.5632060829957,correct,3.18832349999866,fall,left,4,600.6048867499994,,
stim_set/hard-vcom=3-110.png,none.png,unmotivated,3.0,fall,left,hard,,600.6056230409959,601.8632079159943,correct,1.2113811249946593,fall,left,5,607.3207283329975,,
stim_set/hard-549.png,none.png,unmotivated,3.25,stand,right,hard,,607.3212861249995,610.4979560829961,incorrect,3.1281239590025507,fall,left,4,617.0511056249961,,
stim_set/hard-vcom=1-3.png,none.png,unmotivated,2.75,fall,left,hard,,617.0517527499978,618.7481524159957,correct,1.6492175839957781,fall,left,5,624.3192198329998,,
stim_set/hard-vcom=2-110.png,none.png,unmotivated,3.0,fall,left,hard,,624.3199243749987,627.3300248329979,correct,2.958821500003978,fall,left,4,632.9761580409977,,
stim_set/hard-7.png,none.png,unmotivated,2.25,stand,right,hard,,632.976783207996,635.296686791,incorrect,2.262991333998798,fall,left,4,641.4361686249977,,
stim_set/hard-21.png,none.png,unmotivated,4.0,stand,right,hard,,641.4367816249942,644.7214097079996,incorrect,3.2334846669982653,fall,left,3,652.1607910829989,,
stim_set/hard-vcom=4-142.png,none.png,unmotivated,4.0,fall,left,hard,,652.1614772499961,655.7567594579959,correct,3.546990333001304,fall,left,4,663.0657042079984,,
stim_set/hard-91.png,none.png,unmotivated,2.25,stand,right,hard,,663.0662339159971,666.1799086659958,incorrect,3.058536708005704,fall,left,3,671.562775749997,,
stim_set/easy-77.png,none.png,unmotivated,3.0,stand,right,easy,,671.5633726659944,672.8402739159937,correct,1.2293678339992766,stand,right,5,678.3448549999957,,
stim_set/easy-vcom=4-19.png,none.png,unmotivated,3.25,fall,left,easy,,678.3455115830002,681.0631501249954,incorrect,2.661898416998156,stand,right,4,686.5784147499944,,
stim_set/hard-vcom=1-50.png,none.png,unmotivated,3.75,fall,left,hard,,686.5791526249959,688.3964608749957,correct,1.760895667001023,fall,left,5,694.7181060410003,694.7184321249952,
stim_set/easy-vcom=2-20.png,stand.png,cooperation,4.0,fall,left,easy,,,,,,,,,,,
stim_set/hard-570.png,stand.png,cooperation,2.0,stand,right,hard,,,,,,,,,,,
stim_set/hard-vcom=3-110.png,stand.png,cooperation,2.0,fall,left,hard,,,,,,,,,,,
stim_set/hard-600.png,fall.png,cooperation,3.0,stand,right,hard,,,,,,,,,,,
stim_set/hard-244.png,stand.png,cooperation,2.5,stand,right,hard,,,,,,,,,,,
stim_set/easy-vcom=1-73.png,stand.png,cooperation,2.5,fall,left,easy,,,,,,,,,,,
stim_set/easy-vcom=3-15.png,fall.png,cooperation,3.0,fall,left,easy,,,,,,,,,,,
stim_set/hard-vcom=3-145.png,stand.png,cooperation,3.75,fall,left,hard,,,,,,,,,,,
stim_set/easy-vcom=3-74.png,fall.png,cooperation,2.25,fall,left,easy,,,,,,,,,,,
stim_set/easy-77.png,fall.png,cooperation,2.5,stand,right,easy,,,,,,,,,,,
stim_set/easy-538.png,stand.png,cooperation,2.5,stand,right,easy,,,,,,,,,,,
stim_set/hard-vcom=3-34.png,fall.png,cooperation,3.25,fall,left,hard,,,,,,,,,,,
stim_set/hard-vcom=4-139.png,stand.png,cooperation,2.75,fall,left,hard,,,,,,,,,,,
stim_set/easy-13.png,fall.png,cooperation,3.25,stand,right,easy,,,,,,,,,,,
stim_set/hard-280.png,stand.png,cooperation,3.25,stand,right,hard,,,,,,,,,,,
stim_set/hard-599.png,fall.png,cooperation,2.0,stand,right,hard,,,,,,,,,,,
stim_set/hard-402.png,fall.png,cooperation,3.75,stand,right,hard,,,,,,,,,,,
stim_set/easy-vcom=2-147.png,fall.png,cooperation,3.0,fall,left,easy,,,,,,,,,,,
stim_set/hard-2.png,stand.png,cooperation,3.25,stand,right,hard,,,,,,,,,,,
stim_set/hard-566.png,fall.png,cooperation,3.25,stand,right,hard,,,,,,,,,,,
stim_set/easy-590.png,fall.png,cooperation,4.0,stand,right,easy,,,,,,,,,,,
stim_set/easy-vcom=4-126.png,stand.png,cooperation,2.5,fall,left,easy,,,,,,,,,,,
stim_set/easy-vcom=2-94.png,stand.png,cooperation,4.0,fall,left,easy,,,,,,,,,,,
stim_set/hard-vcom=2-147.png,fall.png,cooperation,2.5,fall,left,hard,,,,,,,,,,,
stim_set/easy-411.png,stand.png,cooperation,2.0,stand,right,easy,,,,,,,,,,,
stim_set/hard-vcom=3-7.png,fall.png,cooperation,2.75,fall,left,hard,,,,,,,,,,,
stim_set/hard-14.png,fall.png,cooperation,2.5,stand,right,hard,,,,,,,,,,,
stim_set/hard-49.png,stand.png,cooperation,3.0,stand,right,hard,,,,,,,,,,,
stim_set/hard-82.png,fall.png,cooperation,2.25,stand,right,hard,,,,,,,,,,,
stim_set/hard-492.png,stand.png,cooperation,2.25,stand,right,hard,,,,,,,,,,,
stim_set/hard-345.png,stand.png,cooperation,2.25,stand,right,hard,,,,,,,,,,,
stim_set/hard-40.png,fall.png,cooperation,3.0,stand,right,hard,,,,,,,,,,,
stim_set/easy-vcom=2-3.png,stand.png,cooperation,3.75,fall,left,easy,,,,,,,,,,,
stim_set/hard-vcom=1-50.png,stand.png,cooperation,4.0,fall,left,hard,,,,,,,,,,,
stim_set/hard-vcom=1-30.png,fall.png,cooperation,2.5,fall,left,hard,,,,,,,,,,,
stim_set/hard-369.png,stand.png,cooperation,2.5,stand,right,hard,,,,,,,,,,,
stim_set/hard-vcom=1-3.png,stand.png,cooperation,2.25,fall,left,hard,,,,,,,,,,,
stim_set/easy-vcom=4-69.png,fall.png,cooperation,4.0,fall,left,easy,,,,,,,,,,,
stim_set/easy-344.png,stand.png,cooperation,2.75,stand,right,easy,,,,,,,,,,,
stim_set/hard-564.png,fall.png,cooperation,2.25,stand,right,hard,,,,,,,,,,,
stim_set/hard-vcom=3-142.png,stand.png,cooperation,4.0,fall,left,hard,,,,,,,,,,,
stim_set/hard-382.png,stand.png,cooperation,3.75,stand,right,hard,,,,,,,,,,,
stim_set/hard-vcom=4-75.png,fall.png,cooperation,2.0,fall,left,hard,,,,,,,,,,,
stim_set/hard-321.png,fall.png,cooperation,2.25,stand,right,hard,,,,,,,,,,,
stim_set/hard-vcom=2-20.png,stand.png,cooperation,2.0,fall,left,hard,,,,,,,,,,,
stim_set/hard-vcom=4-23.png,fall.png,cooperation,3.0,fall,left,hard,,,,,,,,,,,
stim_set/hard-vcom=1-136.png,stand.png,cooperation,2.75,fall,left,hard,,,,,,,,,,,
stim_set/hard-vcom=1-95.png,fall.png,cooperation,2.5,fall,left,hard,,,,,,,,,,,
stim_set/easy-vcom=1-12.png,stand.png,cooperation,2.25,fall,left,easy,,,,,,,,,,,
stim_set/hard-vcom=2-137.png,stand.png,cooperation,2.25,fall,left,hard,,,,,,,,,,,
stim_set/hard-vcom=2-16.png,fall.png,cooperation,2.25,fall,left,hard,,,,,,,,,,,
stim_set/hard-vcom=2-100.png,stand.png,cooperation,4.0,fall,left,hard,,,,,,,,,,,
stim_set/hard-441.png,fall.png,cooperation,2.0,stand,right,hard,,,,,,,,,,,
stim_set/hard-vcom=3-82.png,fall.png,cooperation,2.5,fall,left,hard,,,,,,,,,,,
stim_set/hard-549.png,stand.png,cooperation,2.25,stand,right,hard,,,,,,,,,,,
stim_set/hard-391.png,stand.png,cooperation,2.75,stand,right,hard,,,,,,,,,,,
stim_set/hard-367.png,fall.png,cooperation,3.75,stand,right,hard,,,,,,,,,,,
stim_set/easy-vcom=4-19.png,fall.png,cooperation,2.25,fall,left,easy,,,,,,,,,,,
stim_set/hard-vcom=4-80.png,stand.png,cooperation,4.0,fall,left,hard,,,,,,,,,,,
stim_set/hard-vcom=4-142.png,fall.png,cooperation,2.25,fall,left,hard,,,,,,,,,,,
stim_set/hard-21.png,fall.png,cooperation,2.5,stand,right,hard,,,,,,,,,,,
stim_set/easy-vcom=3-38.png,stand.png,cooperation,2.25,fall,left,easy,,,,,,,,,,,
stim_set/easy-vcom=3-142.png,fall.png,cooperation,3.25,fall,left,easy,,,,,,,,,,,
stim_set/easy-164.png,stand.png,cooperation,3.75,stand,right,easy,,,,,,,,,,,
stim_set/hard-316.png,fall.png,cooperation,2.5,stand,right,hard,,,,,,,,,,,
stim_set/hard-vcom=4-92.png,stand.png,cooperation,2.25,fall,left,hard,,,,,,,,,,,
stim_set/hard-78.png,fall.png,cooperation,2.25,stand,right,hard,,,,,,,,,,,
stim_set/easy-280.png,stand.png,cooperation,3.0,stand,right,easy,,,,,,,,,,,
stim_set/easy-vcom=1-87.png,fall.png,cooperation,2.5,fall,left,easy,,,,,,,,,,,
stim_set/easy-vcom=1-145.png,stand.png,cooperation,3.75,fall,left,easy,,,,,,,,,,,
stim_set/hard-91.png,fall.png,cooperation,3.75,stand,right,hard,,,,,,,,,,,
stim_set/hard-182.png,stand.png,cooperation,2.75,stand,right,hard,,,,,,,,,,,
stim_set/hard-177.png,stand.png,cooperation,2.0,stand,right,hard,,,,,,,,,,,
stim_set/hard-132.png,fall.png,cooperation,3.0,stand,right,hard,,,,,,,,,,,
stim_set/hard-vcom=2-110.png,fall.png,cooperation,2.5,fall,left,hard,,,,,,,,,,,
stim_set/hard-214.png,fall.png,cooperation,3.25,stand,right,hard,,,,,,,,,,,
stim_set/hard-334.png,stand.png,cooperation,2.75,stand,right,hard,,,,,,,,,,,
stim_set/hard-vcom=1-130.png,fall.png,cooperation,2.5,fall,left,hard,,,,,,,,,,,
stim_set/hard-7.png,stand.png,cooperation,2.75,stand,right,hard,,,,,,,,,,,
stim_set/hard-vcom=4-147.png,fall.png,cooperation,3.25,fall,left,hard,,,,,,,,,,,
stim_set/easy-vcom=4-126.png,stand.png,competition,3.0,fall,left,easy,,,,,,,,,,,
stim_set/easy-280.png,stand.png,competition,3.75,stand,right,easy,,,,,,,,,,,
stim_set/hard-321.png,fall.png,competition,3.0,stand,right,hard,,,,,,,,,,,
stim_set/hard-vcom=2-147.png,stand.png,competition,2.0,fall,left,hard,,,,,,,,,,,
stim_set/hard-2.png,fall.png,competition,2.75,stand,right,hard,,,,,,,,,,,
stim_set/easy-vcom=2-3.png,fall.png,competition,2.5,fall,left,easy,,,,,,,,,,,
stim_set/hard-21.png,stand.png,competition,2.25,stand,right,hard,,,,,,,,,,,
stim_set/easy-vcom=1-12.png,fall.png,competition,2.75,fall,left,easy,,,,,,,,,,,
stim_set/easy-vcom=2-147.png,stand.png,competition,2.5,fall,left,easy,,,,,,,,,,,
stim_set/hard-367.png,fall.png,competition,3.0,stand,right,hard,,,,,,,,,,,
stim_set/hard-vcom=4-80.png,stand.png,competition,2.5,fall,left,hard,,,,,,,,,,,
stim_set/hard-82.png,stand.png,competition,2.25,stand,right,hard,,,,,,,,,,,
stim_set/easy-vcom=4-19.png,fall.png,competition,2.0,fall,left,easy,,,,,,,,,,,
stim_set/hard-7.png,fall.png,competition,2.0,stand,right,hard,,,,,,,,,,,
stim_set/easy-vcom=3-142.png,stand.png,competition,2.5,fall,left,easy,,,,,,,,,,,
stim_set/easy-vcom=3-74.png,fall.png,competition,2.25,fall,left,easy,,,,,,,,,,,
stim_set/hard-vcom=2-16.png,stand.png,competition,2.25,fall,left,hard,,,,,,,,,,,
stim_set/hard-vcom=4-139.png,fall.png,competition,2.5,fall,left,hard,,,,,,,,,,,
stim_set/hard-vcom=4-147.png,fall.png,competition,2.5,fall,left,hard,,,,,,,,,,,
stim_set/easy-vcom=1-87.png,stand.png,competition,2.5,fall,left,easy,,,,,,,,,,,
stim_set/easy-vcom=4-69.png,fall.png,competition,3.0,fall,left,easy,,,,,,,,,,,
stim_set/hard-316.png,fall.png,competition,3.75,stand,right,hard,,,,,,,,,,,
stim_set/easy-13.png,stand.png,competition,2.25,stand,right,easy,,,,,,,,,,,
stim_set/hard-182.png,stand.png,competition,2.25,stand,right,hard,,,,,,,,,,,
stim_set/hard-vcom=4-92.png,fall.png,competition,3.75,fall,left,hard,,,,,,,,,,,
stim_set/hard-564.png,stand.png,competition,4.0,stand,right,hard,,,,,,,,,,,
stim_set/hard-vcom=1-3.png,stand.png,competition,2.5,fall,left,hard,,,,,,,,,,,
stim_set/easy-164.png,fall.png,competition,2.5,stand,right,easy,,,,,,,,,,,
stim_set/hard-vcom=1-50.png,fall.png,competition,3.75,fall,left,hard,,,,,,,,,,,
stim_set/hard-vcom=1-95.png,fall.png,competition,2.25,fall,left,hard,,,,,,,,,,,
stim_set/hard-280.png,fall.png,competition,2.5,stand,right,hard,,,,,,,,,,,
stim_set/hard-14.png,stand.png,competition,4.0,stand,right,hard,,,,,,,,,,,
stim_set/hard-78.png,fall.png,competition,2.5,stand,right,hard,,,,,,,,,,,
stim_set/hard-91.png,fall.png,competition,2.0,stand,right,hard,,,,,,,,,,,
stim_set/hard-vcom=1-30.png,stand.png,competition,2.75,fall,left,hard,,,,,,,,,,,
stim_set/hard-vcom=2-137.png,fall.png,competition,3.0,fall,left,hard,,,,,,,,,,,
stim_set/hard-vcom=1-130.png,fall.png,competition,3.25,fall,left,hard,,,,,,,,,,,
stim_set/hard-vcom=4-23.png,stand.png,competition,3.25,fall,left,hard,,,,,,,,,,,
stim_set/hard-vcom=3-34.png,stand.png,competition,2.5,fall,left,hard,,,,,,,,,,,
stim_set/hard-441.png,fall.png,competition,4.0,stand,right,hard,,,,,,,,,,,
stim_set/hard-244.png,stand.png,competition,4.0,stand,right,hard,,,,,,,,,,,
stim_set/hard-vcom=3-7.png,stand.png,competition,2.25,fall,left,hard,,,,,,,,,,,
stim_set/easy-411.png,stand.png,competition,2.25,stand,right,easy,,,,,,,,,,,
stim_set/hard-vcom=2-20.png,fall.png,competition,3.75,fall,left,hard,,,,,,,,,,,
stim_set/easy-vcom=2-94.png,stand.png,competition,4.0,fall,left,easy,,,,,,,,,,,
stim_set/hard-vcom=3-110.png,fall.png,competition,2.5,fall,left,hard,,,,,,,,,,,
stim_set/hard-vcom=1-136.png,fall.png,competition,3.25,fall,left,hard,,,,,,,,,,,
stim_set/hard-vcom=2-100.png,stand.png,competition,2.75,fall,left,hard,,,,,,,,,,,
stim_set/easy-vcom=3-15.png,stand.png,competition,3.0,fall,left,easy,,,,,,,,,,,
stim_set/easy-590.png,fall.png,competition,4.0,stand,right,easy,,,,,,,,,,,
stim_set/hard-600.png,stand.png,competition,2.25,stand,right,hard,,,,,,,,,,,
stim_set/hard-40.png,fall.png,competition,2.25,stand,right,hard,,,,,,,,,,,
stim_set/easy-vcom=1-73.png,stand.png,competition,4.0,fall,left,easy,,,,,,,,,,,
stim_set/hard-492.png,fall.png,competition,2.25,stand,right,hard,,,,,,,,,,,
stim_set/hard-382.png,stand.png,competition,2.0,stand,right,hard,,,,,,,,,,,
stim_set/hard-vcom=2-110.png,fall.png,competition,2.25,fall,left,hard,,,,,,,,,,,
stim_set/hard-334.png,stand.png,competition,3.25,stand,right,hard,,,,,,,,,,,
stim_set/hard-49.png,fall.png,competition,3.75,stand,right,hard,,,,,,,,,,,
stim_set/hard-vcom=4-142.png,fall.png,competition,2.75,fall,left,hard,,,,,,,,,,,
stim_set/hard-vcom=3-145.png,stand.png,competition,4.0,fall,left,hard,,,,,,,,,,,
stim_set/hard-345.png,stand.png,competition,3.25,stand,right,hard,,,,,,,,,,,
stim_set/hard-599.png,stand.png,competition,2.25,stand,right,hard,,,,,,,,,,,
stim_set/hard-549.png,fall.png,competition,2.75,stand,right,hard,,,,,,,,,,,
stim_set/hard-177.png,stand.png,competition,3.75,stand,right,hard,,,,,,,,,,,
stim_set/easy-vcom=1-145.png,fall.png,competition,2.5,fall,left,easy,,,,,,,,,,,
stim_set/hard-214.png,stand.png,competition,2.0,stand,right,hard,,,,,,,,,,,
stim_set/easy-538.png,fall.png,competition,2.5,stand,right,easy,,,,,,,,,,,
stim_set/hard-vcom=4-75.png,stand.png,competition,3.25,fall,left,hard,,,,,,,,,,,
stim_set/hard-vcom=3-82.png,fall.png,competition,2.25,fall,left,hard,,,,,,,,,,,
stim_set/hard-570.png,stand.png,competition,2.0,stand,right,hard,,,,,,,,,,,
stim_set/hard-566.png,fall.png,competition,3.75,stand,right,hard,,,,,,,,,,,
stim_set/hard-vcom=3-142.png,stand.png,competition,2.75,fall,left,hard,,,,,,,,,,,
stim_set/easy-vcom=3-38.png,stand.png,competition,2.5,fall,left,easy,,,,,,,,,,,
stim_set/easy-77.png,fall.png,competition,2.0,stand,right,easy,,,,,,,,,,,
stim_set/easy-vcom=2-20.png,fall.png,competition,3.0,fall,left,easy,,,,,,,,,,,
stim_set/hard-402.png,stand.png,competition,2.25,stand,right,hard,,,,,,,,,,,
stim_set/hard-369.png,fall.png,competition,3.0,stand,right,hard,,,,,,,,,,,
stim_set/easy-344.png,fall.png,competition,3.25,stand,right,easy,,,,,,,,,,,
stim_set/hard-391.png,stand.png,competition,3.25,stand,right,hard,,,,,,,,,,,
stim_set/hard-132.png,fall.png,competition,2.75,stand,right,hard,,,,,,,,,,,
stim_set/hard-410.png,fall.png,cooperation,3.75,stand,right,hard,,,,,,,,,,,
stim_set/hard-188.png,stand.png,competition,4.0,stand,right,hard,,,,,,,,,,,
