towers,bet,condition,iti,corr_choice,corr_key,difficulty,block_start,trial_start,stim_on,acc,rt,part_choice,part_key,confidence,trial_end,block_end,updated_score,condition_first,cue_on,condition_second
stim_set/hard-600.png,none.png,unmotivated,2.5,stand,right,hard,3.249999281251803e-06,0.002640457998495549,1.5099577500004666,incorrect,1.4568844580026052,fall,left,5.0,9.890375625000159,,205.0,cooperation,,competition
stim_set/hard-vcom=4-147.png,none.png,unmotivated,2.25,fall,left,hard,,9.89176741600022,14.959977291000538,incorrect,,,,,20.427337624998472,,400.0,,,
stim_set/easy-vcom=1-12.png,none.png,unmotivated,2.0,fall,left,easy,,20.427919624999053,21.9182175829992,incorrect,1.4357535409981208,stand,right,5.0,27.557509124999342,,595.0,,,
stim_set/hard-492.png,none.png,unmotivated,2.0,stand,right,hard,,27.558197665999607,30.72669191599925,incorrect,3.1160874999986845,fall,left,5.0,36.0289121249989,,,,,
stim_set/hard-vcom=2-137.png,none.png,unmotivated,3.0,fall,left,hard,,36.02948633299821,38.09344408299876,correct,2.0132377080008155,fall,left,4.0,45.948896082998544,,,,,
stim_set/easy-vcom=2-147.png,none.png,unmotivated,3.25,fall,left,easy,,45.94966924999972,47.99529629099925,correct,1.9979437080000928,fall,left,5.0,53.75015366599836,,,,,
stim_set/easy-vcom=1-73.png,none.png,unmotivated,2.5,fall,left,easy,,53.75069549999898,55.18516024999917,correct,1.3894489999984216,fall,left,5.0,60.6076785410005,,,,,
stim_set/easy-344.png,none.png,unmotivated,4.0,stand,right,easy,,60.60820695800066,61.91837708299863,correct,1.2603212920002989,stand,right,5.0,68.55554608300008,,,,,
stim_set/easy-vcom=4-126.png,none.png,unmotivated,2.5,fall,left,easy,,68.5561041660003,73.62819829100043,incorrect,,,,,78.0053092909984,,,,,
stim_set/hard-vcom=2-147.png,none.png,unmotivated,2.5,fall,left,hard,,78.0058872080008,79.68516629099759,correct,1.6341349579997768,fall,left,5.0,85.20713487499961,,,,,
stim_set/hard-132.png,none.png,unmotivated,3.75,stand,right,hard,,85.20766991599884,86.37862979100098,incorrect,1.1250260830020125,fall,left,5.0,92.49863183299749,,,,,
stim_set/hard-vcom=3-7.png,none.png,unmotivated,2.75,fall,left,hard,,92.49922920799871,94.53514779100078,correct,1.9849920419983391,fall,left,5.0,99.8812430830003,,,,,
stim_set/hard-391.png,none.png,unmotivated,2.25,stand,right,hard,,99.8818059999976,101.10392466600024,incorrect,1.1761048339976696,fall,left,5.0,106.16701929099872,,,,,
stim_set/hard-402.png,none.png,unmotivated,2.5,stand,right,hard,,106.16761658299947,107.29540495800028,incorrect,1.078432124999381,fall,left,5.0,112.91945425000084,,,,,
stim_set/easy-13.png,none.png,unmotivated,2.5,stand,right,easy,,112.92004654099944,114.9099859159978,correct,1.9347350829993961,stand,right,4.0,121.00248395800007,,,,,
stim_set/hard-367.png,none.png,unmotivated,2.5,stand,right,hard,,121.00303279099899,123.17833062499994,incorrect,2.129190708998067,fall,left,4.0,128.66355512500013,,,,,
stim_set/easy-vcom=2-20.png,none.png,unmotivated,2.25,fall,left,easy,,128.66409262500022,132.45189537499755,correct,3.736813749997964,fall,left,3.0,137.59119258300052,,,,,
stim_set/hard-316.png,none.png,unmotivated,2.0,stand,right,hard,,137.59173575000023,141.57671354099875,incorrect,3.932228458001192,fall,left,4.0,147.48539275000076,,,,,
stim_set/hard-82.png,none.png,unmotivated,3.75,stand,right,hard,,147.48601908300043,151.68523579099931,correct,4.145870791999187,stand,right,3.0,158.24268308300088,,,,,
stim_set/hard-564.png,none.png,unmotivated,3.75,stand,right,hard,,158.2432614159989,159.41020033300086,incorrect,1.1135043750000475,fall,left,5.0,166.43657654100025,,,,,
stim_set/hard-vcom=3-142.png,none.png,unmotivated,3.25,fall,left,hard,,166.4372000410003,167.7518878749979,correct,1.257317667001189,fall,left,5.0,174.0137682079985,,,,,
stim_set/hard-566.png,none.png,unmotivated,3.75,stand,right,hard,,174.01443241599918,175.37692620799862,incorrect,1.3065547910009627,fall,left,5.0,182.58730054099945,,,,,
stim_set/hard-280.png,none.png,unmotivated,2.25,stand,right,hard,,182.587869166,186.3019535409985,correct,3.659209582998301,stand,right,4.0,193.48007883299942,,,,,
stim_set/hard-vcom=3-145.png,none.png,unmotivated,2.75,fall,left,hard,,193.48063179100063,194.74498879100062,correct,1.2249283749988535,fall,left,5.0,201.19524091600042,,,,,
stim_set/easy-vcom=2-94.png,none.png,unmotivated,2.75,fall,left,easy,,201.1957892499995,202.7103831659988,correct,1.4639948750009353,fall,left,5.0,208.2111500829997,,,,,
stim_set/hard-vcom=4-80.png,none.png,unmotivated,3.75,fall,left,hard,,208.2117781249981,209.48709058299937,correct,1.2250239579989284,fall,left,5.0,216.32249474999844,,,,,
stim_set/hard-599.png,none.png,unmotivated,3.0,stand,right,hard,,216.32310674999823,217.67695516599997,incorrect,1.3090684579983645,fall,left,5.0,224.1569543750011,,,,,
stim_set/hard-182.png,none.png,unmotivated,4.0,stand,right,hard,,224.1574972909984,225.58528170799764,incorrect,1.383378000002267,fall,left,5.0,234.3172336659991,,,,,
stim_set/hard-570.png,none.png,unmotivated,2.25,stand,right,hard,,234.3177783329993,235.32067454099888,incorrect,0.9505444999995234,fall,left,5.0,240.88772220800087,,,,,
stim_set/easy-vcom=4-69.png,none.png,unmotivated,2.25,fall,left,easy,,240.88825174999874,243.5127877909981,incorrect,2.574290207998274,stand,right,5.0,249.11179562499817,,,,,
stim_set/easy-280.png,none.png,unmotivated,3.0,stand,right,easy,,249.11234291599976,251.00181908299786,correct,1.8392000829990136,stand,right,5.0,259.87205800000083,,,,,
stim_set/hard-2.png,none.png,unmotivated,2.75,stand,right,hard,,259.87264120799955,261.6604425410005,incorrect,1.7347502500015253,fall,left,4.0,268.0992167500008,,,,,
stim_set/hard-vcom=2-100.png,none.png,unmotivated,3.25,fall,left,hard,,268.09986283299804,269.32040404099826,correct,1.1738232079987938,fall,left,5.0,275.5665112499992,,,,,
stim_set/hard-177.png,none.png,unmotivated,2.0,stand,right,hard,,275.5670677909984,276.968697332999,incorrect,1.3572976659997948,fall,left,4.0,282.5107683329988,,,,,
stim_set/hard-244.png,none.png,unmotivated,3.25,stand,right,hard,,282.51133616600055,285.47718962499863,incorrect,2.9102991660001862,fall,left,3.0,292.72020833299763,,,,,
stim_set/easy-538.png,none.png,unmotivated,2.5,stand,right,easy,,292.7208646250001,293.562114458,correct,0.7968927500005519,stand,right,5.0,298.4716542499991,,,,,
stim_set/easy-vcom=3-15.png,none.png,unmotivated,2.25,fall,left,easy,,298.472269124999,302.3437034159979,correct,3.8201099580001032,fall,left,3.0,307.91962008300106,,,,,
stim_set/easy-vcom=1-145.png,none.png,unmotivated,3.75,fall,left,easy,,307.9202005000006,309.09531824999794,correct,1.1273840419999033,fall,left,5.0,316.9717878329975,,,,,
stim_set/hard-vcom=4-92.png,none.png,unmotivated,2.75,fall,left,hard,,316.97232795799937,319.3458040410005,correct,2.3227037500000733,fall,left,5.0,325.09926195799926,,,,,
stim_set/easy-vcom=1-87.png,none.png,unmotivated,3.0,fall,left,easy,,325.0998719579984,327.37891979100095,incorrect,2.229532208002638,stand,right,4.0,334.1896017910003,334.1899378329981,,,,
stim_set/easy-vcom=3-142.png,none.png,unmotivated,2.75,fall,left,easy,352.1079499580011,352.10872741599815,355.6939520829983,correct,3.5314234170000423,fall,left,5.0,361.19427591600106,,,,,
stim_set/easy-590.png,none.png,unmotivated,2.5,stand,right,easy,,361.19484445799753,362.9354112500005,correct,1.6855801249985234,stand,right,5.0,367.8887278750008,,,,,
stim_set/hard-78.png,none.png,unmotivated,2.25,stand,right,hard,,367.8892751659987,369.18716874999876,incorrect,1.2496961659999215,fall,left,5.0,374.6630210410002,,,,,
stim_set/hard-214.png,none.png,unmotivated,3.25,stand,right,hard,,374.6635906249977,377.76207504099887,incorrect,3.0487588340001817,fall,left,4.0,384.07855316600035,,,,,
stim_set/hard-49.png,none.png,unmotivated,2.25,stand,right,hard,,384.0790884579983,387.5536937079996,incorrect,3.423825999998371,fall,left,3.0,392.65393537499773,,,,,
stim_set/hard-441.png,none.png,unmotivated,2.5,stand,right,hard,,392.6544548329985,393.9687622909987,correct,1.2639832919994658,stand,right,5.0,399.6650817080008,,,,,
stim_set/hard-369.png,none.png,unmotivated,2.0,stand,right,hard,,399.66564154099984,401.7289789159986,correct,2.0234552920010174,stand,right,3.0,406.7404719999978,,,,,
stim_set/hard-345.png,none.png,unmotivated,2.5,stand,right,hard,,406.7410471660005,410.2771808750003,incorrect,3.4857270840002457,fall,left,5.0,416.09792829099746,,,,,
stim_set/easy-vcom=3-38.png,none.png,unmotivated,2.5,fall,left,easy,,416.09847479100057,417.72049899999917,incorrect,1.5723565410007725,stand,right,2.0,424.6886130409985,,,,,
stim_set/hard-vcom=2-16.png,none.png,unmotivated,2.5,fall,left,hard,,424.68918499999916,426.3022144579991,correct,1.557680583999172,fall,left,5.0,431.664460041,,,,,
stim_set/easy-vcom=3-74.png,none.png,unmotivated,2.25,fall,left,easy,,431.664976166001,433.58710024999885,correct,1.873125207999692,fall,left,5.0,439.56749441599817,,,,,
stim_set/easy-vcom=2-3.png,none.png,unmotivated,4.0,fall,left,easy,,439.5680470410007,441.2449307909992,correct,1.6295468750031432,fall,left,4.0,449.037900583,,,,,
stim_set/hard-vcom=4-75.png,none.png,unmotivated,2.5,fall,left,hard,,449.0385402079992,452.185471124998,correct,3.0930919589991386,fall,left,5.0,459.0411947079992,,,,,
stim_set/hard-vcom=3-34.png,none.png,unmotivated,2.0,fall,left,hard,,459.04173604099924,460.1202438750006,correct,1.026251332998072,fall,left,5.0,465.61326954099786,,,,,
stim_set/easy-164.png,none.png,unmotivated,4.0,stand,right,easy,,465.6138364159997,467.5854921249993,correct,1.9151207079994488,stand,right,4.0,474.412531416001,,,,,
stim_set/hard-382.png,none.png,unmotivated,2.75,stand,right,hard,,474.4130825409993,476.953689375001,incorrect,2.5012089160009046,fall,left,4.0,484.2602126249985,,,,,
stim_set/hard-vcom=1-130.png,none.png,unmotivated,2.25,fall,left,hard,,484.26075583299826,486.0187310830007,correct,1.7079850830014038,fall,left,4.0,492.1123963749997,,,,,
stim_set/easy-411.png,none.png,unmotivated,4.0,stand,right,easy,,492.1129353329997,495.21208045800086,incorrect,3.049329999998008,fall,left,5.0,502.2521351659999,,,,,
stim_set/hard-40.png,none.png,unmotivated,3.0,stand,right,hard,,502.2526993749999,503.7439014160009,incorrect,1.4366231249987322,fall,left,5.0,511.3328333329992,,,,,
stim_set/hard-vcom=4-139.png,none.png,unmotivated,4.0,fall,left,hard,,511.333378583,513.7290712079994,incorrect,2.349756332998368,stand,right,4.0,520.476737500001,,,,,
stim_set/hard-vcom=1-30.png,none.png,unmotivated,3.75,fall,left,hard,,520.4774028749998,521.9606497079985,correct,1.4337570419993426,fall,left,5.0,530.7637171249992,,,,,
stim_set/hard-vcom=3-82.png,none.png,unmotivated,2.25,fall,left,hard,,530.7644507910009,532.5022365000004,correct,1.6822344579995845,fall,left,5.0,538.9601012909989,,,,,
stim_set/hard-321.png,none.png,unmotivated,2.25,stand,right,hard,,538.9607125830007,539.9769385830004,incorrect,0.9642308750007942,fall,left,5.0,544.6949982500008,,,,,
stim_set/hard-vcom=2-20.png,none.png,unmotivated,2.25,fall,left,hard,,544.6956292499998,546.419034915998,correct,1.6645715419981568,fall,left,5.0,551.6712079159988,,,,,
stim_set/hard-vcom=1-95.png,none.png,unmotivated,2.0,fall,left,hard,,551.6717903749994,553.2856454159992,correct,1.5631061249987397,fall,left,4.0,557.9319574580004,,,,,
stim_set/hard-vcom=4-23.png,none.png,unmotivated,2.5,fall,left,hard,,557.9325527910005,561.4939190830011,incorrect,3.5101751250003868,stand,right,4.0,567.5783507079977,,,,,
stim_set/hard-334.png,none.png,unmotivated,2.0,stand,right,hard,,567.578851708,569.8868623749986,incorrect,2.261731375001545,fall,left,5.0,575.2297110830004,,,,,
stim_set/hard-14.png,none.png,unmotivated,3.25,stand,right,hard,,575.2302972500001,577.7953380830004,incorrect,2.525430833997234,fall,left,5.0,584.9749377909975,,,,,
stim_set/hard-vcom=1-136.png,none.png,unmotivated,2.5,fall,left,hard,,584.9754364580002,586.0454640829994,correct,1.0241751249996014,fall,left,5.0,590.9517264159986,,,,,
stim_set/hard-vcom=3-110.png,none.png,unmotivated,3.0,fall,left,hard,,590.9522780000008,592.0107167499991,correct,1.013449917001708,fall,left,5.0,597.9485250409998,,,,,
stim_set/hard-549.png,none.png,unmotivated,3.25,stand,right,hard,,597.9490514579993,600.1284674999988,incorrect,2.132549250000011,fall,left,5.0,606.3022950829983,,,,,
stim_set/hard-vcom=1-3.png,none.png,unmotivated,2.75,fall,left,hard,,606.3028463749979,607.7937416249988,correct,1.4395543749997155,fall,left,5.0,612.969639125,,,,,
stim_set/hard-vcom=2-110.png,none.png,unmotivated,3.0,fall,left,hard,,612.9701822079987,614.5272443329995,correct,1.50766854199901,fall,left,5.0,620.020131082998,,,,,
stim_set/hard-7.png,none.png,unmotivated,2.25,stand,right,hard,,620.0206848329981,620.9202356659988,incorrect,0.8492423329989833,fall,left,5.0,626.1749549579981,,,,,
stim_set/hard-21.png,none.png,unmotivated,4.0,stand,right,hard,,626.1755112909996,627.4607955829997,incorrect,1.2354262079970797,fall,left,5.0,634.5318186660006,,,,,
stim_set/hard-vcom=4-142.png,none.png,unmotivated,4.0,fall,left,hard,,634.5323325409988,636.9787347079982,incorrect,2.400600875000237,stand,right,4.0,644.125616082998,,,,,
stim_set/hard-91.png,none.png,unmotivated,2.25,stand,right,hard,,644.1261787500008,647.1037899160001,incorrect,2.9300844169993066,fall,left,4.0,652.2057044579997,,,,,
stim_set/easy-77.png,none.png,unmotivated,3.0,stand,right,easy,,652.2062650000007,654.1439636659998,correct,1.8867595839983549,stand,right,5.0,660.1253152499994,,,,,
stim_set/easy-vcom=4-19.png,none.png,unmotivated,3.25,fall,left,easy,,660.1261125409982,662.2189459159999,incorrect,2.037798541001393,stand,right,5.0,669.2072349160007,,,,,
stim_set/hard-vcom=1-50.png,none.png,unmotivated,3.75,fall,left,hard,,669.2077764159985,670.4620004159988,correct,1.204408333000174,fall,left,5.0,676.8749798329991,676.8753070829989,,,,
stim_set/easy-vcom=2-20.png,stand.png,cooperation,4.0,fall,left,easy,0.00015395800073747523,0.000753332999011036,7.134630917000322,correct,2.0926932920010586,fall,left,4.0,14.4286358749996,,,,1.012481875000958,
stim_set/hard-570.png,stand.png,cooperation,2.0,stand,right,hard,,14.429219166999244,21.434686832999436,incorrect,1.960440874998312,fall,left,5.0,28.6625348330017,,,,15.440141874998515,
stim_set/hard-vcom=3-110.png,stand.png,cooperation,2.0,fall,left,hard,,28.663158792001923,34.84467895800117,correct,1.1531289170015953,fall,left,5.0,39.61024416700093,,,,29.674258082999586,
stim_set/hard-600.png,fall.png,cooperation,3.0,stand,right,hard,,39.61080841700095,45.484594042001845,incorrect,0.8365741250017891,fall,left,5.0,50.8111323330013,,,,40.622250667001936,
stim_set/hard-244.png,stand.png,cooperation,2.5,stand,right,hard,,50.81168729199999,58.01782062500206,incorrect,2.1603617500004475,fall,left,4.0,63.752479667000436,,,,51.82223920799879,
stim_set/easy-vcom=1-73.png,stand.png,cooperation,2.5,fall,left,easy,,63.75303162500131,70.36106262500107,correct,1.5787041670009785,fall,left,4.0,76.63943099999959,,,,64.76358654200158,
stim_set/easy-vcom=3-15.png,fall.png,cooperation,3.0,fall,left,easy,,76.64008812500106,84.65295833300115,incorrect,2.9773725000013656,stand,right,4.0,91.66931662500065,,,,77.65041433299848,
stim_set/hard-vcom=3-145.png,stand.png,cooperation,3.75,fall,left,hard,,91.66993775000084,99.69290566700148,correct,2.9884080839983653,fall,left,4.0,106.48111499999868,,,,92.68103170800168,
stim_set/easy-vcom=3-74.png,fall.png,cooperation,2.25,fall,left,easy,,106.4816598750003,114.23456341700148,correct,2.708960125000885,fall,left,4.0,120.51057545799995,,,,107.49207979199856,
stim_set/easy-77.png,fall.png,cooperation,2.5,stand,right,easy,,120.51110804199922,127.76950091700199,correct,2.2244965419995424,stand,right,4.0,133.19886637500167,,,,121.5218179580006,
stim_set/easy-538.png,stand.png,cooperation,2.5,stand,right,easy,,133.19959154200114,139.65130666700134,correct,1.4120967910021136,stand,right,4.0,145.3610366249995,,,,134.2105080830006,
stim_set/hard-vcom=3-34.png,fall.png,cooperation,3.25,fall,left,hard,,145.36155175000022,151.91780587500034,correct,1.5113503749998929,fall,left,4.0,158.55846820800068,,,,146.37169245800033,
stim_set/hard-vcom=4-139.png,stand.png,cooperation,2.75,fall,left,hard,,158.55908291699959,165.08456762499918,correct,1.4852191249992757,fall,left,4.0,172.20374433300094,,,,159.57003916699978,
stim_set/easy-13.png,fall.png,cooperation,3.25,stand,right,easy,,172.20430291700177,180.884331666999,incorrect,3.636101457999757,fall,left,4.0,187.29455416700145,,,,173.21446166700116,
stim_set/hard-280.png,stand.png,cooperation,3.25,stand,right,hard,,187.29518487500167,194.92635104199869,correct,2.5859742920001736,stand,right,4.0,201.36453283299846,,,,188.30643145800062,
stim_set/hard-599.png,fall.png,cooperation,2.0,stand,right,hard,,201.36508895799847,207.84442070799926,incorrect,1.4508862500006217,fall,left,5.0,212.8744529169999,,,,202.37507970799928,
stim_set/hard-402.png,fall.png,cooperation,3.75,stand,right,hard,,212.87503079200175,219.10127474999902,incorrect,1.1830148749977525,fall,left,5.0,225.16019874999984,,,,213.885091791999,
stim_set/easy-vcom=2-147.png,fall.png,cooperation,3.0,fall,left,easy,,225.16074374999883,231.4595595419996,correct,1.2565624159979052,fall,left,5.0,236.77169104199857,,,,226.1710560419997,
stim_set/hard-2.png,stand.png,cooperation,3.25,stand,right,hard,,236.77224387499882,243.95957670799908,incorrect,2.144930208000005,fall,left,4.0,249.70070633300202,,,,237.78245541700016,
stim_set/hard-566.png,fall.png,cooperation,3.25,stand,right,hard,,249.7012551670014,255.9944398750013,incorrect,1.2539371670027322,fall,left,5.0,262.55786083299967,,,,250.7112130829992,
stim_set/easy-590.png,fall.png,cooperation,4.0,stand,right,easy,,262.55853204199957,269.5931191669988,correct,1.9895719579981237,stand,right,5.0,277.00388970800117,,,,263.5689358749987,
stim_set/easy-vcom=4-126.png,stand.png,cooperation,2.5,fall,left,easy,,277.0046102500018,283.5846576250005,incorrect,1.5344173749981564,stand,right,3.0,289.8886397079986,,,,278.0161833329985,
stim_set/easy-vcom=2-94.png,stand.png,cooperation,4.0,fall,left,easy,,289.8891757919992,296.292849292,correct,1.3628238330020397,fall,left,5.0,305.35587049999964,,,,290.89982508300085,
stim_set/hard-vcom=2-147.png,fall.png,cooperation,2.5,fall,left,hard,,305.35642287500013,315.22643125000104,incorrect,4.835661707998952,stand,right,4.0,322.8250490829996,,,,306.3667182499994,
stim_set/easy-411.png,stand.png,cooperation,2.0,stand,right,easy,,322.8256447499989,329.44516612499865,correct,1.5797922909987392,stand,right,5.0,334.122424707999,,,,323.8362979580015,
stim_set/hard-vcom=3-7.png,fall.png,cooperation,2.75,fall,left,hard,,334.12297541700167,340.88612645800094,correct,1.7277224589997786,fall,left,5.0,347.202794249999,,,,335.13303304199866,
stim_set/hard-14.png,fall.png,cooperation,2.5,stand,right,hard,,347.2034214170017,354.07828349999915,incorrect,1.8475035410010603,fall,left,5.0,359.56667745799865,,,,348.2134960000003,
stim_set/hard-49.png,stand.png,cooperation,3.0,stand,right,hard,,359.56721041700075,367.0694162079999,correct,2.4618297499982877,stand,right,4.0,373.60469366699914,,,,360.5773612500016,
stim_set/hard-82.png,fall.png,cooperation,2.25,stand,right,hard,,373.6053128749992,381.9096103330012,incorrect,3.2608172079999354,fall,left,4.0,387.2769022920002,,,,374.616310292,
stim_set/hard-492.png,stand.png,cooperation,2.25,stand,right,hard,,387.2774921669989,393.47634612500036,incorrect,1.1571412499979488,fall,left,4.0,398.54109687500016,,,,388.28773166700194,
stim_set/hard-345.png,stand.png,cooperation,2.25,stand,right,hard,,398.5417211669992,405.59302966700125,incorrect,2.009434540999792,fall,left,5.0,411.52554087500175,,,,399.552736083002,
stim_set/hard-40.png,fall.png,cooperation,3.0,stand,right,hard,,411.526101792002,417.8612871250007,incorrect,1.297477667001658,fall,left,5.0,423.7626847499996,,,,412.536509417001,
stim_set/easy-vcom=2-3.png,stand.png,cooperation,3.75,fall,left,easy,,423.76324200000084,430.89307575000197,correct,2.086751417002233,fall,left,5.0,437.8013935419986,,,,424.7739199169992,
stim_set/hard-vcom=1-50.png,stand.png,cooperation,4.0,fall,left,hard,,437.80200083299866,444.1598053330017,correct,1.3140233749982144,fall,left,5.0,450.8993179169993,,,,438.81320499999856,
stim_set/hard-vcom=1-30.png,fall.png,cooperation,2.5,fall,left,hard,,450.8998797079985,457.3014587079997,correct,1.3631230419996427,fall,left,5.0,462.334869958002,,,,451.90999712499985,
stim_set/hard-369.png,stand.png,cooperation,2.5,stand,right,hard,,462.33541899999915,469.4446056669986,incorrect,2.079373915999895,fall,left,5.0,476.67989087499876,,,,463.3462666250016,
stim_set/hard-vcom=1-3.png,stand.png,cooperation,2.25,fall,left,hard,,476.6804620830008,482.7848318329997,correct,1.0648646250010645,fall,left,5.0,488.25426637499913,,,,477.69109066700173,
stim_set/easy-vcom=4-69.png,fall.png,cooperation,4.0,fall,left,easy,,488.2548931669989,495.8846549580012,correct,2.587197457996808,fall,left,5.0,502.7232901249991,,,,489.2649462920017,
stim_set/easy-344.png,stand.png,cooperation,2.75,stand,right,easy,,502.7239911249998,509.8108481250019,correct,2.0531287500016333,stand,right,5.0,515.4409001249987,,,,503.73472954200037,
stim_set/hard-564.png,fall.png,cooperation,2.25,stand,right,hard,,515.4414551670015,521.6180617499995,incorrect,1.133960584000306,fall,left,5.0,526.9265738329997,526.9269028749986,,,516.4513218329994,
stim_set/hard-vcom=3-142.png,stand.png,cooperation,4.0,fall,left,hard,544.9946693329985,544.995393666999,552.7347642919996,correct,2.684943750002276,fall,left,5.0,560.6696395420004,,,,546.0144490419989,
stim_set/hard-382.png,stand.png,cooperation,3.75,stand,right,hard,,560.670376500002,567.4930996250006,incorrect,1.7887189170032798,fall,left,4.0,574.3371719579991,,,,561.6810210420008,
stim_set/hard-vcom=4-75.png,fall.png,cooperation,2.0,fall,left,hard,,574.3377459580006,580.3530802079987,correct,0.9764848749982776,fall,left,5.0,584.7156871670013,,,,575.3480085420015,
stim_set/hard-321.png,fall.png,cooperation,2.25,stand,right,hard,,584.7162593749998,590.9033936250016,incorrect,1.1516846670019731,fall,left,5.0,595.5094204999988,,,,585.7263119999989,
stim_set/hard-vcom=2-20.png,stand.png,cooperation,2.0,fall,left,hard,,595.5100218750013,603.751539249999,incorrect,3.1992289999980135,stand,right,4.0,610.1011522500012,,,,596.5203858329987,
stim_set/hard-vcom=4-23.png,fall.png,cooperation,3.0,fall,left,hard,,610.1017991670013,618.1263789170007,incorrect,2.9853204589999223,stand,right,4.0,624.4295211249993,,,,611.1128026250008,
stim_set/hard-vcom=1-136.png,stand.png,cooperation,2.75,fall,left,hard,,624.4300578750008,630.78479075,correct,1.3135138340003325,fall,left,5.0,637.0109102499991,,,,625.4406809169996,
stim_set/hard-vcom=1-95.png,fall.png,cooperation,2.5,fall,left,hard,,637.0115263330007,646.2697476669999,correct,4.224991292001505,fall,left,5.0,652.2315033750019,,,,638.0217179579995,
stim_set/easy-vcom=1-12.png,stand.png,cooperation,2.25,fall,left,easy,,652.2320582079992,661.6263752919986,correct,4.350008542001889,fall,left,4.0,667.0451007920019,,,,653.2427603329998,
stim_set/hard-vcom=2-137.png,stand.png,cooperation,2.25,fall,left,hard,,667.0456408749998,673.6933307500002,incorrect,1.6088507499989646,stand,right,4.0,681.271609667001,,,,668.056183875,
stim_set/hard-vcom=2-16.png,fall.png,cooperation,2.25,fall,left,hard,,681.2724011249992,690.4515911250019,incorrect,4.134072458000446,stand,right,3.0,696.3830553330008,,,,682.2830123749992,
stim_set/hard-vcom=2-100.png,stand.png,cooperation,4.0,fall,left,hard,,696.3835616670003,703.4945339580008,correct,2.074356417000672,fall,left,5.0,711.0523136250013,,,,697.3940000830008,
stim_set/hard-441.png,fall.png,cooperation,2.0,stand,right,hard,,711.0528564999986,718.3265219999994,correct,2.235765000001265,stand,right,4.0,723.4371056669987,,,,712.063116917001,
stim_set/hard-vcom=3-82.png,fall.png,cooperation,2.5,fall,left,hard,,723.4377338330014,729.6533066250012,correct,1.1761694170018018,fall,left,5.0,735.3694879169998,,,,724.448093750001,
stim_set/hard-549.png,stand.png,cooperation,2.25,stand,right,hard,,735.3700263749997,742.1288139579992,incorrect,1.7230223750011646,fall,left,4.0,747.9740549170018,,,,736.3804485,
stim_set/hard-391.png,stand.png,cooperation,2.75,stand,right,hard,,747.9745899580013,754.786442167002,incorrect,1.7771157919996767,fall,left,4.0,763.7220901670007,,,,748.9849643330017,
stim_set/hard-367.png,fall.png,cooperation,3.75,stand,right,hard,,763.7226107079988,770.0013785830016,incorrect,1.2386435830012488,fall,left,5.0,777.428068833,,,,764.7330762499988,
stim_set/easy-vcom=4-19.png,fall.png,cooperation,2.25,fall,left,easy,,777.4286148749997,783.9681248330015,incorrect,1.4974102080013836,stand,right,4.0,790.1356298749997,,,,778.4387939580009,
stim_set/hard-vcom=4-80.png,stand.png,cooperation,4.0,fall,left,hard,,790.1362719999997,796.1681880420001,correct,0.9874521249985264,fall,left,5.0,803.2039030420018,,,,791.1469142079986,
stim_set/hard-vcom=4-142.png,fall.png,cooperation,2.25,fall,left,hard,,803.204496917002,812.1015725830002,correct,3.858959165998385,fall,left,4.0,817.5354959169998,,,,804.2146030420007,
stim_set/hard-21.png,fall.png,cooperation,2.5,stand,right,hard,,817.5361264169987,824.8598065830009,incorrect,2.2855411660020764,fall,left,4.0,830.5188778330013,,,,818.5467160000007,
stim_set/easy-vcom=3-38.png,stand.png,cooperation,2.25,fall,left,easy,,830.5194455000018,837.0265409999993,incorrect,1.4632360830000837,stand,right,4.0,842.4858857500003,,,,831.5298373330006,
stim_set/easy-vcom=3-142.png,fall.png,cooperation,3.25,fall,left,easy,,842.4864466670006,849.8930904580011,correct,2.3632823750012903,fall,left,4.0,857.9213117500003,,,,843.4968949579998,
stim_set/easy-164.png,stand.png,cooperation,3.75,stand,right,easy,,857.9218605419992,866.9016875830022,correct,3.9355071249992766,stand,right,4.0,873.6805899579996,,,,858.9323652919992,
stim_set/hard-316.png,fall.png,cooperation,2.5,stand,right,hard,,873.6811277919987,881.2098006250017,incorrect,2.4899863329992518,fall,left,5.0,886.5826606250013,,,,874.6911782499992,
stim_set/hard-vcom=4-92.png,stand.png,cooperation,2.25,fall,left,hard,,886.5832289579994,893.6597985830012,correct,2.032125083998835,fall,left,5.0,898.4686124580002,,,,887.5934682080007,
stim_set/hard-78.png,fall.png,cooperation,2.25,stand,right,hard,,898.4693015420016,906.1265690830004,incorrect,2.6155770419973123,fall,left,5.0,919.8391122920003,,,,899.4791863329992,
stim_set/easy-280.png,stand.png,cooperation,3.0,stand,right,easy,,919.8397163750013,926.1534402079996,incorrect,1.2786216669992427,fall,left,4.0,932.5559712920004,,,,920.8501317500012,
stim_set/easy-vcom=1-87.png,fall.png,cooperation,2.5,fall,left,easy,,932.5565171669988,940.3698959169997,incorrect,2.775545624997904,stand,right,5.0,945.7759076670008,,,,933.5667543749988,
stim_set/easy-vcom=1-145.png,stand.png,cooperation,3.75,fall,left,easy,,945.7764521669997,951.886698208,correct,1.0726087080001891,fall,left,4.0,960.0417224580016,,,,946.786829042001,
stim_set/hard-91.png,fall.png,cooperation,3.75,stand,right,hard,,960.0422552499987,966.559902500001,incorrect,1.4770510839989583,fall,left,5.0,972.7686527500008,,,,961.0528245829993,
stim_set/hard-182.png,stand.png,cooperation,2.75,stand,right,hard,,972.7692774169992,981.8282622500011,incorrect,4.028789166997741,fall,left,4.0,987.9382125830016,,,,973.7807416249997,
stim_set/hard-177.png,stand.png,cooperation,2.0,stand,right,hard,,987.938764292001,995.3348872499993,incorrect,2.361727750001592,fall,left,5.0,1002.6718005830008,,,,988.9492349999999,
stim_set/hard-132.png,fall.png,cooperation,3.0,stand,right,hard,,1002.6723586250008,1008.5866108330009,incorrect,0.8784815420003724,fall,left,5.0,1019.8843735420013,,,,1003.683036041999,
stim_set/hard-vcom=2-110.png,fall.png,cooperation,2.5,fall,left,hard,,1019.8851060000017,1026.6265588329989,correct,1.7046324170005391,fall,left,4.0,1031.511194499999,,,,1020.8951856669992,
stim_set/hard-214.png,fall.png,cooperation,3.25,stand,right,hard,,1031.5117935829983,1037.7681174169993,incorrect,1.2127957909979161,fall,left,5.0,1044.1271522079987,,,,1032.5221736669992,
stim_set/hard-334.png,stand.png,cooperation,2.75,stand,right,hard,,1044.1277453330003,1052.1516041670002,incorrect,2.9869519170024432,fall,left,4.0,1058.1461334999983,,,,1045.1382004170011,
stim_set/hard-vcom=1-130.png,fall.png,cooperation,2.5,fall,left,hard,,1058.146672292001,1064.2515372080015,correct,1.0648319169995375,fall,left,5.0,1070.9635976669997,,,,1059.1572528750003,
stim_set/hard-7.png,stand.png,cooperation,2.75,stand,right,hard,,1070.9641486670007,1079.078173124999,incorrect,3.0738778330014616,fall,left,4.0,1085.4213061250011,,,,1071.9747671670011,
stim_set/hard-vcom=4-147.png,fall.png,cooperation,3.25,fall,left,hard,,1085.4218258330002,1091.9615651669992,correct,1.500042708001274,fall,left,5.0,1098.7981197080007,1098.7984447919991,,,1086.4319355420012,
stim_set/easy-vcom=4-126.png,stand.png,competition,3.0,fall,left,easy,0.00012349999815342017,0.0007352909997280221,6.40901379099887,incorrect,1.3625575420010136,stand,right,5,12.940125458000693,,,,1.0135873330000322,
stim_set/easy-280.png,stand.png,competition,3.75,stand,right,easy,,12.940643375000946,19.067166500000894,correct,1.087179083002411,stand,right,5,26.4738851660004,,,,13.951597957999184,
stim_set/hard-321.png,fall.png,competition,3.0,stand,right,hard,,26.474611790999916,33.92546570799823,incorrect,2.4143789170011587,fall,left,5,40.14747999999963,,,,27.484685166000418,
stim_set/hard-vcom=2-147.png,stand.png,competition,2.0,fall,left,hard,,40.14811558300062,46.852425249999214,incorrect,1.6756785420002416,stand,right,5,51.92973520799933,,,,41.15874474999873,
stim_set/hard-2.png,fall.png,competition,2.75,stand,right,hard,,51.9302843330006,60.26862708299814,incorrect,3.302590125000279,fall,left,4,66.36190987499867,,,,52.94084450000082,
stim_set/easy-vcom=2-3.png,fall.png,competition,2.5,fall,left,easy,,66.36264104099973,73.61723266599802,correct,2.2148601659973792,fall,left,4,78.60634262500025,,,,67.37275429099827,
stim_set/hard-21.png,stand.png,competition,2.25,stand,right,hard,,78.60688583299998,87.7938072500001,correct,4.1539067499979865,stand,right,4,93.12529575000008,,,,79.6174133329987,
stim_set/easy-vcom=1-12.png,fall.png,competition,2.75,fall,left,easy,,93.12587779100068,100.32547708299899,incorrect,2.1570656250005413,stand,right,4,105.6807608329982,,,,94.13694083299924,
stim_set/easy-vcom=2-147.png,stand.png,competition,2.5,fall,left,easy,,105.6814372910012,112.68390645799809,correct,1.9616847500001313,fall,left,4,121.98712608300048,,,,106.6921552499989,
stim_set/hard-367.png,fall.png,competition,3.0,stand,right,hard,,121.98767304099965,131.1438063329988,incorrect,4.122537999999622,fall,left,4,137.40329916599876,,,,122.99772058300005,
stim_set/hard-vcom=4-80.png,stand.png,competition,2.5,fall,left,hard,,137.40409474999979,143.88390945799983,correct,1.4360873330006143,fall,left,4,149.31845504100056,,,,138.41519787499783,
stim_set/hard-82.png,stand.png,competition,2.25,stand,right,hard,,149.31900012500046,155.57550904099844,correct,1.2149592499990831,stand,right,4,160.7727288749993,,,,150.3297845829984,
stim_set/easy-vcom=4-19.png,fall.png,competition,2.0,fall,left,easy,,160.77342220799983,166.77543387499827,incorrect,0.9596063749995665,stand,right,5,171.35421479100114,,,,161.7840949579986,
stim_set/hard-7.png,fall.png,competition,2.0,stand,right,hard,,171.35493879099886,178.39378062499964,incorrect,2.0007032079993223,fall,left,5,182.81036216600114,,,,172.365481290999,
stim_set/easy-vcom=3-142.png,stand.png,competition,2.5,fall,left,easy,,182.81093529099962,191.9768946660006,incorrect,4.129831916001422,stand,right,3,198.27129970799797,,,,183.8218859999979,
stim_set/easy-vcom=3-74.png,fall.png,competition,2.25,fall,left,easy,,198.27184091600066,205.03529254100067,correct,1.7269877500002622,fall,left,5,210.18919058299798,,,,199.28215066600023,
stim_set/hard-vcom=2-16.png,stand.png,competition,2.25,fall,left,hard,,210.18974904100105,216.31865683299839,incorrect,1.0906320829999459,stand,right,4,222.005778499999,,,,211.20032466599878,
stim_set/hard-vcom=4-139.png,fall.png,competition,2.5,fall,left,hard,,222.00632749999932,228.30887345799783,correct,1.263713666001422,fall,left,4,233.96734804099833,,,,223.01668737499858,
stim_set/hard-vcom=4-147.png,fall.png,competition,2.5,fall,left,hard,,233.96790849999888,240.4105029579987,correct,1.405052624999371,fall,left,5,245.63766599999872,,,,234.97782141599964,
stim_set/easy-vcom=1-87.png,stand.png,competition,2.5,fall,left,easy,,245.6382489159987,253.31720104099804,incorrect,2.635483750000276,stand,right,4,258.5272453329999,,,,246.64887233300033,
stim_set/easy-vcom=4-69.png,fall.png,competition,3.0,fall,left,easy,,258.52781254100046,265.03390975,incorrect,1.4647327910024615,stand,right,4,270.8427797910008,,,,259.53763066600004,
stim_set/hard-316.png,fall.png,competition,3.75,stand,right,hard,,270.8433264160012,277.1755032910005,incorrect,1.294785416997911,fall,left,4,283.384689874998,,,,271.85347295799875,
stim_set/easy-13.png,stand.png,competition,2.25,stand,right,easy,,283.38533741599895,293.29216562500005,correct,4.8634708339996,stand,right,4,299.15789058299924,,,,284.3962347079978,
stim_set/hard-182.png,stand.png,competition,2.25,stand,right,hard,,299.1584160409984,306.02525616599814,incorrect,1.8343038330021955,fall,left,4,311.1883740410012,,,,300.1695290409989,
stim_set/hard-vcom=4-92.png,fall.png,competition,3.75,fall,left,hard,,311.18889266599945,317.3023558749992,correct,1.0752644999993208,fall,left,5,323.69692762499835,,,,312.1992159580004,
stim_set/hard-564.png,stand.png,competition,4.0,stand,right,hard,,323.697525208001,329.73587004100045,incorrect,1.0013247499991849,fall,left,5,336.4667682500003,,,,324.7082118750004,
stim_set/hard-vcom=1-3.png,stand.png,competition,2.5,fall,left,hard,,336.46731208300116,343.0270648330006,correct,1.5249588749975374,fall,left,5,348.6877422910002,,,,337.4783606659985,
stim_set/easy-164.png,fall.png,competition,2.5,stand,right,easy,,348.6883453749979,357.59203741599777,correct,3.861250707999716,stand,right,4,363.79276466599913,,,,349.6984874580012,
stim_set/hard-vcom=1-50.png,fall.png,competition,3.75,fall,left,hard,,363.7934862080001,371.6755645000012,correct,2.8392053339994163,fall,left,5,378.80927125000017,,,,364.8036429999993,
stim_set/hard-vcom=1-95.png,fall.png,competition,2.25,fall,left,hard,,378.80993266600126,385.88379008300035,correct,2.035688084000867,fall,left,5,391.3647364999997,,,,379.8207566659985,
stim_set/hard-280.png,fall.png,competition,2.5,stand,right,hard,,391.36530974999914,401.4254470409978,incorrect,,,,,406.4470850409998,,,,392.3753269999979,
stim_set/hard-14.png,stand.png,competition,4.0,stand,right,hard,,406.4477072080008,413.12674554099794,correct,1.65167591700083,stand,right,3,420.4196564160011,,,,407.45827720799934,
stim_set/hard-78.png,fall.png,competition,2.5,stand,right,hard,,420.4204765409995,426.885237333001,incorrect,1.428793750001205,fall,left,5,434.2157597080004,,,,421.4312790410004,
stim_set/hard-91.png,fall.png,competition,2.0,stand,right,hard,,434.2162885409998,441.9672487909993,incorrect,2.7109507090026455,fall,left,5,447.7796751249989,,,,435.2263365830004,
stim_set/hard-vcom=1-30.png,stand.png,competition,2.75,fall,left,hard,,447.7802166250003,454.51066533300036,incorrect,1.6980454170006851,stand,right,3,460.84943512500104,,,,448.79084658300053,
stim_set/hard-vcom=2-137.png,fall.png,competition,3.0,fall,left,hard,,460.8499804159983,468.2105193749994,incorrect,2.329347582999617,stand,right,4,473.75428945800013,,,,461.8601233749978,
stim_set/hard-vcom=1-130.png,fall.png,competition,3.25,fall,left,hard,,473.7548492909991,481.31020974999774,correct,2.522902332999365,fall,left,5,487.02091491600004,,,,474.7649285410007,
stim_set/hard-vcom=4-23.png,stand.png,competition,3.25,fall,left,hard,,487.02147420799884,494.86716420800076,incorrect,2.8075676250009565,stand,right,5,501.04503083300006,,,,488.0315492910013,
stim_set/hard-vcom=3-34.png,stand.png,competition,2.5,fall,left,hard,,501.04555487499965,507.5109673750012,correct,1.426734167001996,fall,left,4,513.7990195409984,,,,502.05645274999915,
stim_set/hard-441.png,fall.png,competition,4.0,stand,right,hard,,513.799558540999,521.1359058749986,correct,2.3040743750025285,stand,right,5,536.8466003329995,536.8470061250009,,,514.8099546659978,
stim_set/hard-244.png,stand.png,competition,4.0,stand,right,hard,553.1461793329981,553.1469960409995,559.5352772080005,correct,1.3487738750009157,stand,right,5,567.9165792909989,,,,554.1593444999999,
stim_set/hard-vcom=3-7.png,stand.png,competition,2.25,fall,left,hard,,567.9172001250008,574.2773826249977,correct,1.3263374999987718,fall,left,4,579.4615809999996,,,,568.9279062909991,
stim_set/easy-411.png,stand.png,competition,2.25,stand,right,easy,,579.4621375829993,586.7772663329997,correct,2.2776204590009,stand,right,4,591.4292828750004,,,,580.4725175409985,
stim_set/hard-vcom=2-20.png,fall.png,competition,3.75,fall,left,hard,,591.4298479999998,598.7189909999979,correct,2.251870500000223,fall,left,4,605.8428584579997,,,,592.4399684579985,
stim_set/easy-vcom=2-94.png,stand.png,competition,4.0,fall,left,easy,,605.843415583,612.2669774999995,correct,1.3853097499995783,fall,left,5,623.0366690829978,,,,606.8541360409981,
stim_set/hard-vcom=3-110.png,fall.png,competition,2.5,fall,left,hard,,623.0372194999982,629.3940318329987,correct,1.3290165420003177,fall,left,5,635.0550161249994,,,,624.0475005000008,
stim_set/hard-vcom=1-136.png,fall.png,competition,3.25,fall,left,hard,,635.0555603329994,641.0588739160012,correct,0.9644519169996784,fall,left,5,646.668473916001,,,,636.0656707079979,
stim_set/hard-vcom=2-100.png,stand.png,competition,2.75,fall,left,hard,,646.6690783329977,655.727106833001,incorrect,4.023941832998389,stand,right,3,661.2327017909993,,,,647.6796917079992,
stim_set/easy-vcom=3-15.png,stand.png,competition,3.0,fall,left,easy,,661.2333185829993,667.6084798330012,incorrect,1.336904959000094,stand,right,4,673.0658846250008,,,,662.2440251250009,
stim_set/easy-590.png,fall.png,competition,4.0,stand,right,easy,,673.066421083,680.3772176659986,correct,2.272883790999913,stand,right,4,686.8590068330013,,,,674.0766204159991,
stim_set/hard-600.png,stand.png,competition,2.25,stand,right,hard,,686.8596333749992,694.2606219580011,incorrect,2.373282249998738,fall,left,4,698.9407106250001,,,,687.8700334159985,
stim_set/hard-40.png,fall.png,competition,2.25,stand,right,hard,,698.9413144999999,705.7171661249995,incorrect,1.7354491670012067,fall,left,4,711.0382817909995,,,,699.9513574579978,
stim_set/easy-vcom=1-73.png,stand.png,competition,4.0,fall,left,easy,,711.0389797079988,720.0087400000011,correct,3.9376842080018832,fall,left,4,728.1077545830012,,,,712.049305665998,
stim_set/hard-492.png,fall.png,competition,2.25,stand,right,hard,,728.1083012499985,736.9935842909981,incorrect,3.8506934170000022,fall,left,4,742.462101000001,,,,729.118606041,
stim_set/hard-382.png,stand.png,competition,2.0,stand,right,hard,,742.4626520409984,748.143897416001,correct,0.6535142079992511,stand,right,4,753.5634973749984,,,,743.473061875,
stim_set/hard-vcom=2-110.png,fall.png,competition,2.25,fall,left,hard,,753.5641266659986,760.1020498750004,correct,1.5062315840004885,fall,left,4,764.9086474579999,,,,754.5745403330002,
stim_set/hard-334.png,stand.png,competition,3.25,stand,right,hard,,764.9092082909992,771.868770000001,incorrect,1.9278378329981933,fall,left,5,777.5161656659984,,,,765.9192552079985,
stim_set/hard-49.png,fall.png,competition,3.75,stand,right,hard,,777.5167145409978,784.5771747079998,incorrect,2.0226081250002608,fall,left,5,791.4415677500001,,,,778.5266914579988,
stim_set/hard-vcom=4-142.png,fall.png,competition,2.75,fall,left,hard,,791.4421417080011,798.1171560830007,incorrect,1.6366934580000816,stand,right,4,803.7213146659997,,,,792.4522151659985,
stim_set/hard-vcom=3-145.png,stand.png,competition,4.0,fall,left,hard,,803.7218692499991,810.4672133329987,correct,1.7130250420013908,fall,left,4,817.7080434999989,,,,804.7324092499985,
stim_set/hard-345.png,fall.png,competition,3.25,stand,right,hard,,817.7086997080005,826.0685141659997,incorrect,3.3267027500005497,fall,left,4,831.7892394160008,,,,818.7191226659997,
stim_set/hard-599.png,stand.png,competition,2.25,stand,right,hard,,831.7898490000007,840.0188181249978,incorrect,3.201580542001466,fall,left,3,844.9166781249987,,,,832.8000955829993,
stim_set/hard-549.png,fall.png,competition,2.75,stand,right,hard,,844.9172392910004,854.2171835830013,incorrect,4.260458958000527,fall,left,4,859.7918840829989,,,,845.9270201250001,
stim_set/hard-177.png,stand.png,competition,3.75,stand,right,hard,,859.7925073750012,867.1936752500005,correct,2.3735535409978183,stand,right,4,874.4101217499992,,,,860.8031471659997,
stim_set/easy-vcom=1-145.png,fall.png,competition,2.5,fall,left,easy,,874.4106705829981,880.6337372499984,correct,1.1831597499985946,fall,left,4,885.8862912910008,,,,875.4205639159991,
stim_set/hard-214.png,stand.png,competition,2.0,stand,right,hard,,885.8870027499979,893.8171802910001,incorrect,2.8880611669992504,fall,left,5,898.3067578749979,,,,886.8970897910003,
stim_set/easy-538.png,fall.png,competition,2.5,stand,right,easy,,898.3073160409986,906.3004851250007,correct,2.957427208999434,stand,right,5,911.0954702499985,,,,899.3173579579998,
stim_set/hard-vcom=4-75.png,stand.png,competition,3.25,fall,left,hard,,911.0962902909996,917.9004765409991,incorrect,1.7620287499994447,stand,right,4,924.6622695410006,,,,912.1068528329997,
stim_set/hard-vcom=3-82.png,fall.png,competition,2.25,fall,left,hard,,924.6630051249995,931.3771635000012,correct,1.678718540999398,fall,left,4,935.9728066659991,,,,925.6730285000012,
stim_set/hard-570.png,stand.png,competition,2.0,stand,right,hard,,935.9733671249996,943.0754871249992,incorrect,2.0598126250006317,fall,left,4,947.7705255830006,,,,936.9836166659989,
stim_set/hard-566.png,fall.png,competition,3.75,stand,right,hard,,947.771193665998,953.8254515000008,incorrect,1.0110961659993336,fall,left,4,959.8564888750007,,,,948.7812942909986,
stim_set/hard-vcom=3-142.png,stand.png,competition,2.75,fall,left,hard,,959.8570461659983,966.8336953329999,correct,1.9335255000005418,fall,left,3,972.2480101250003,,,,960.8674348329987,
stim_set/easy-vcom=3-38.png,stand.png,competition,2.5,fall,left,easy,,972.2485311659984,979.2504742909987,incorrect,1.9599800409996533,stand,right,5,984.27070275,,,,973.2589140409982,
stim_set/easy-77.png,fall.png,competition,2.0,stand,right,easy,,984.271259041001,990.5421342910013,correct,1.2330340829976194,stand,right,5,996.1012250409985,,,,985.2812899579985,
stim_set/easy-vcom=2-20.png,fall.png,competition,3.0,fall,left,easy,,996.1017577909988,1002.5856905,correct,1.4513262920008856,fall,left,5,1008.2672622499995,,,,997.111450458,
stim_set/hard-402.png,stand.png,competition,2.25,stand,right,hard,,1008.2678923329986,1015.5922428749982,incorrect,2.2824471249987255,fall,left,4,1020.6605976659994,,,,1009.2783660829991,
stim_set/hard-369.png,fall.png,competition,3.0,stand,right,hard,,1020.6611554160008,1026.8757538749996,incorrect,1.1821747079993656,fall,left,5,1032.2347111659983,,,,1021.6713737909995,
stim_set/easy-344.png,fall.png,competition,3.25,stand,right,easy,,1032.2352382499994,1039.633884750001,correct,2.3607469170019613,stand,right,3,1045.2760761659993,,,,1033.2449344579982,
stim_set/hard-391.png,stand.png,competition,3.25,stand,right,hard,,1045.2766381250003,1052.0505011659989,incorrect,1.7360274999991816,fall,left,4,1057.7326599160006,,,,1046.2871135409987,
stim_set/hard-132.png,fall.png,competition,2.75,stand,right,hard,,1057.733191583,1063.893986125,incorrect,1.1271128340013092,fall,left,5,1069.1519605409994,1069.1523841659982,,,1058.7437234159988,
stim_set/hard-410.png,stand.png,cooperation,3.75,stand,right,hard,3.0410010367631912e-06,0.0025032500016095587,8.330487458002608,incorrect,3.30983841700072,fall,left,4.0,17.017460500002926,17.017977999999854,,,1.01626833300179,
stim_set/hard-188.png,stand.png,competition,4.0,stand,right,hard,2.625001798151061e-06,0.002234667001175694,6.915453458001139,incorrect,1.9009201250009937,fall,left,5,14.0751897500013,14.075721167002484,,,1.017193292002048,
