towers,bet,condition,iti,corr_choice,corr_key,difficulty,block_start,trial_start,stim_on,acc,trial_end,rt,part_choice,part_key,confidence,block_end,updated_score,condition_first,cue_on
stim_set/hard-600.png,none.png,unmotivated,2.5,stand,right,hard,4.2090032366104416e-06,0.002801333997922484,5.064097666996531,incorrect,9.85132991700084,,,,,,195.0,cooperation,
stim_set/hard-vcom=4-147.png,none.png,unmotivated,2.25,fall,left,hard,,9.852584209002089,11.257474958998499,incorrect,18.979757583998435,1.3529938329957076,stand,right,4.0,,425.0,,
stim_set/easy-vcom=1-12.png,none.png,unmotivated,2.0,fall,left,easy,,18.980539834003142,21.222461874996952,correct,26.743693917000197,2.1861405000017844,fall,left,3.0,,,,
stim_set/hard-492.png,none.png,unmotivated,2.0,stand,right,hard,,26.74425216700183,28.78060508400085,incorrect,33.390619666999555,1.9828107499997716,fall,left,4.0,,,,
stim_set/hard-vcom=2-137.png,none.png,unmotivated,3.0,fall,left,hard,,33.39115554199816,35.78049066699896,correct,42.06491958400147,2.3393037920031934,fall,left,5.0,,,,
stim_set/easy-vcom=2-147.png,none.png,unmotivated,3.25,fall,left,easy,,42.065721291997754,44.13043345900225,correct,50.585209249999025,2.011084166995716,fall,left,4.0,,,,
stim_set/easy-vcom=1-73.png,none.png,unmotivated,2.5,fall,left,easy,,50.58574333399884,52.33219270900008,correct,57.27456279200123,1.7050496660012868,fall,left,3.0,,,,
stim_set/easy-344.png,none.png,unmotivated,4.0,stand,right,easy,,57.27508425000269,58.61351379199914,correct,65.11903695899673,1.2878237920012907,stand,right,5.0,,,,
stim_set/easy-vcom=4-126.png,none.png,unmotivated,2.5,fall,left,easy,,65.11977550000303,69.44846262499777,incorrect,74.35549850000098,4.277222250006162,stand,right,3.0,,,,
stim_set/hard-vcom=2-147.png,none.png,unmotivated,2.5,fall,left,hard,,74.3561224169971,76.04853033400286,correct,80.947572709003,1.650860667003144,fall,left,4.0,,,,
stim_set/hard-132.png,none.png,unmotivated,3.75,stand,right,hard,,80.94814566700371,82.18871008400309,incorrect,88.4044233340028,1.1881350420007948,fall,left,5.0,,,,
stim_set/hard-vcom=3-7.png,none.png,unmotivated,2.75,fall,left,hard,,88.40499420899869,89.96361883400095,correct,95.37292750000051,1.50706620800338,fall,left,5.0,,,,
stim_set/hard-391.png,none.png,unmotivated,2.25,stand,right,hard,,95.37349299999914,97.36344937499962,incorrect,102.62515008400078,1.9384086249992836,fall,left,5.0,,,,
stim_set/hard-402.png,none.png,unmotivated,2.5,stand,right,hard,,102.62573845899895,104.31339833400123,incorrect,110.18748995899661,1.6328346250011236,fall,left,5.0,,,,
stim_set/easy-13.png,none.png,unmotivated,2.5,stand,right,easy,,110.18824412499815,112.30494129200086,correct,117.13083229200129,2.0603275829998893,stand,right,3.0,,,,
stim_set/hard-367.png,none.png,unmotivated,2.5,stand,right,hard,,117.1313866249984,118.73183420900023,incorrect,123.75512437499857,1.5527201249933569,fall,left,4.0,,,,
stim_set/easy-vcom=2-20.png,none.png,unmotivated,2.25,fall,left,easy,,123.75566812499892,126.1314614169969,correct,130.68800845900114,2.3290980840029083,fall,left,4.0,,,,
stim_set/hard-316.png,none.png,unmotivated,2.0,stand,right,hard,,130.68880133399944,135.54017808399658,incorrect,140.542786334001,4.804391042001953,fall,left,3.0,,,,
stim_set/hard-82.png,none.png,unmotivated,3.75,stand,right,hard,,140.54333416699956,144.31310700000176,incorrect,150.39661958399662,3.715356166001584,fall,left,3.0,,,,
stim_set/hard-564.png,none.png,unmotivated,3.75,stand,right,hard,,150.39714595900298,151.61293899999873,incorrect,157.82041425000352,1.1607972920028258,fall,left,5.0,,,,
stim_set/hard-vcom=3-142.png,none.png,unmotivated,3.25,fall,left,hard,,157.821168167,162.88811991699913,incorrect,167.94163987500357,,,,,,,,
stim_set/hard-566.png,none.png,unmotivated,3.75,stand,right,hard,,167.94227708400282,168.96275199999945,incorrect,175.55619245900016,0.9636746660034988,fall,left,5.0,,,,
stim_set/hard-280.png,none.png,unmotivated,2.25,stand,right,hard,,175.55673037499946,178.3814806250011,correct,184.53116058400337,2.7735030420008115,stand,right,3.0,,,,
stim_set/hard-vcom=3-145.png,none.png,unmotivated,2.75,fall,left,hard,,184.53170212500117,187.22300112499943,incorrect,193.181376499997,2.649567874999775,stand,right,4.0,,,,
stim_set/easy-vcom=2-94.png,none.png,unmotivated,2.75,fall,left,easy,,193.18199895900037,197.3561666250025,correct,202.5327784170004,4.1270779999977085,fall,left,3.0,,,,
stim_set/hard-vcom=4-80.png,none.png,unmotivated,3.75,fall,left,hard,,202.53332566699828,203.85444237499905,correct,209.96433641699696,1.26500216700515,fall,left,5.0,,,,
stim_set/hard-599.png,none.png,unmotivated,3.0,stand,right,hard,,209.9648938340033,211.8711674169972,incorrect,217.33460075000042,1.8605720840059805,fall,left,5.0,,,,
stim_set/hard-182.png,none.png,unmotivated,4.0,stand,right,hard,,217.335159000002,218.63791774999842,incorrect,225.302121875,1.25696450000396,fall,left,5.0,,,,
stim_set/hard-570.png,none.png,unmotivated,2.25,stand,right,hard,,225.3026794589969,226.97091770899715,incorrect,231.55964145900361,1.611527417000616,fall,left,5.0,,,,
stim_set/easy-vcom=4-69.png,none.png,unmotivated,2.25,fall,left,easy,,231.56040650000068,232.92935891699744,incorrect,237.84094300000285,1.3131703749968435,stand,right,3.0,,,,
stim_set/easy-280.png,none.png,unmotivated,3.0,stand,right,easy,,237.8415002499969,239.57936033399886,correct,245.2937145420001,1.6860386249973092,stand,right,4.0,,,,
stim_set/hard-2.png,none.png,unmotivated,2.75,stand,right,hard,,245.29419545899876,250.03764899999803,correct,255.30784437499824,4.688726165994011,stand,right,3.0,,,,
stim_set/hard-vcom=2-100.png,none.png,unmotivated,3.25,fall,left,hard,,255.30836987499785,257.10612691700226,correct,262.88024583399965,1.7491410000002356,fall,left,5.0,,,,
stim_set/hard-177.png,none.png,unmotivated,2.0,stand,right,hard,,262.88079329200264,265.46244379199925,incorrect,271.8941547919967,2.5352079999938724,fall,left,5.0,,,,
stim_set/hard-244.png,none.png,unmotivated,3.25,stand,right,hard,,271.8948901249969,275.1221488750016,correct,280.6877483749995,3.175571207997564,stand,right,2.0,,,,
stim_set/easy-538.png,none.png,unmotivated,2.5,stand,right,easy,,280.68837441699725,282.2791296249997,correct,288.05862233399966,1.5396583330002611,stand,right,4.0,,,,
stim_set/easy-vcom=3-15.png,none.png,unmotivated,2.25,fall,left,easy,,288.0591821670023,290.82065312500345,correct,295.37643379200017,2.7096219579980243,fall,left,4.0,,,,
stim_set/easy-vcom=1-145.png,none.png,unmotivated,3.75,fall,left,easy,,295.3771075839977,297.1555021250024,correct,303.3389498339966,1.7289221250030096,fall,left,5.0,,,,
stim_set/hard-vcom=4-92.png,none.png,unmotivated,2.75,fall,left,hard,,303.33953012499836,305.3788684169995,correct,312.1327742499998,1.983049458001915,fall,left,4.0,,,,
stim_set/easy-vcom=1-87.png,none.png,unmotivated,3.0,fall,left,easy,,312.13340379200235,317.2039244170009,incorrect,322.30813625000155,,,,,322.3084949999975,,,
stim_set/easy-vcom=3-142.png,none.png,unmotivated,2.75,fall,left,easy,345.13303291700134,345.13380162500107,347.8537023750032,correct,353.6354384590013,2.664484166998591,fall,left,3.0,,,,
stim_set/easy-590.png,none.png,unmotivated,2.5,stand,right,easy,,353.6359661250026,354.78830891699914,correct,359.80908812500275,1.100751375000982,stand,right,5.0,,,,
stim_set/hard-78.png,none.png,unmotivated,2.25,stand,right,hard,,359.80987754200027,361.3886237499974,incorrect,365.98221237499814,1.5290770000065097,fall,left,5.0,,,,
stim_set/hard-214.png,none.png,unmotivated,3.25,stand,right,hard,,365.98285429200035,368.3384309999965,incorrect,374.7287099169989,2.304338082998584,fall,left,2.0,,,,
stim_set/hard-49.png,none.png,unmotivated,2.25,stand,right,hard,,374.72944487500354,377.245166583998,correct,382.991489,2.457689959002892,stand,right,3.0,,,,
stim_set/hard-441.png,none.png,unmotivated,2.5,stand,right,hard,,382.99206483399763,384.91378995899873,correct,390.30483016699867,1.8759410409984407,stand,right,3.0,,,,
stim_set/hard-369.png,none.png,unmotivated,2.0,stand,right,hard,,390.30544850000297,393.2616629589975,incorrect,398.12569154200173,2.9099085830021068,fall,left,2.0,,,,
stim_set/hard-345.png,none.png,unmotivated,2.5,stand,right,hard,,398.1262824590012,399.84663300000096,correct,404.72848283399804,1.6734064580014092,stand,right,3.0,,,,
stim_set/easy-vcom=3-38.png,none.png,unmotivated,2.5,fall,left,easy,,404.7290517500005,407.67997233400087,incorrect,412.7444169169976,2.899503958004061,stand,right,3.0,,,,
stim_set/hard-vcom=2-16.png,none.png,unmotivated,2.5,fall,left,hard,,412.7450004589991,415.1366337500003,correct,419.97658258400037,2.3343820000009146,fall,left,2.0,,,,
stim_set/easy-vcom=3-74.png,none.png,unmotivated,2.25,fall,left,easy,,419.97713116699737,422.3300408340001,correct,428.55220829199965,2.3015231250028587,fall,left,3.0,,,,
stim_set/easy-vcom=2-3.png,none.png,unmotivated,4.0,fall,left,easy,,428.55279008400254,430.10463537499885,correct,436.49286358399695,1.5021390839974629,fall,left,4.0,,,,
stim_set/hard-vcom=4-75.png,none.png,unmotivated,2.5,fall,left,hard,,436.4934095420031,439.8544770000008,incorrect,445.1609549589994,3.310381791998225,stand,right,3.0,,,,
stim_set/hard-vcom=3-34.png,none.png,unmotivated,2.0,fall,left,hard,,445.1615299589977,448.15295741699816,correct,453.3888960839976,2.9346052500040964,fall,left,2.0,,,,
stim_set/easy-164.png,none.png,unmotivated,4.0,stand,right,easy,,453.3894217920024,454.836145209003,correct,461.1327254999997,1.389831917003903,stand,right,3.0,,,,
stim_set/hard-382.png,none.png,unmotivated,2.75,stand,right,hard,,461.1333177920024,464.7111186670009,incorrect,470.610731583998,3.5322514159997813,fall,left,1.0,,,,
stim_set/hard-vcom=1-130.png,none.png,unmotivated,2.25,fall,left,hard,,470.61127191699785,472.4377966250031,incorrect,477.01365812499716,1.7797247909984435,stand,right,3.0,,,,
stim_set/easy-411.png,none.png,unmotivated,4.0,stand,right,easy,,477.0142298339997,478.6869393750021,correct,485.39676029200206,1.6220484169971314,stand,right,3.0,,,,
stim_set/hard-40.png,none.png,unmotivated,3.0,stand,right,hard,,485.3973475419989,486.94598233400035,incorrect,494.46395754200057,1.4986179159968742,fall,left,4.0,,,,
stim_set/hard-vcom=4-139.png,none.png,unmotivated,4.0,fall,left,hard,,494.4647092919986,498.5377920840037,incorrect,505.2279116670034,4.025800708004681,stand,right,2.0,,,,
stim_set/hard-vcom=1-30.png,none.png,unmotivated,3.75,fall,left,hard,,505.228652042002,507.12937787499686,correct,513.4020122500007,1.8550273329965419,fall,left,4.0,,,,
stim_set/hard-vcom=3-82.png,none.png,unmotivated,2.25,fall,left,hard,,513.4027014590029,514.754358291997,correct,519.5582102089975,1.3018004580007982,fall,left,5.0,,,,
stim_set/hard-321.png,none.png,unmotivated,2.25,stand,right,hard,,519.558825209002,520.569192666997,incorrect,525.975734874999,0.959326249998412,fall,left,5.0,,,,
stim_set/hard-vcom=2-20.png,none.png,unmotivated,2.25,fall,left,hard,,525.9762968750001,527.6689130000013,correct,532.205598792003,1.6368385829991894,fall,left,4.0,,,,
stim_set/hard-vcom=1-95.png,none.png,unmotivated,2.0,fall,left,hard,,532.2061484590013,533.9689094589994,incorrect,539.0215117089973,1.7111435420010817,stand,right,3.0,,,,
stim_set/hard-vcom=4-23.png,none.png,unmotivated,2.5,fall,left,hard,,539.0220761669989,541.0856327090005,incorrect,547.0730016250018,2.0120125000030384,stand,right,4.0,,,,
stim_set/hard-334.png,none.png,unmotivated,2.0,stand,right,hard,,547.0735637920006,548.9606387500025,incorrect,553.3800379169988,1.836876667002798,fall,left,4.0,,,,
stim_set/hard-14.png,none.png,unmotivated,3.25,stand,right,hard,,553.3806919170021,555.8356167919992,incorrect,561.8773834590029,2.4091087080014404,fall,left,1.0,,,,
stim_set/hard-vcom=1-136.png,none.png,unmotivated,2.5,fall,left,hard,,561.8779368339965,564.2939556670026,incorrect,569.0716496669993,2.3633926249967767,stand,right,3.0,,,,
stim_set/hard-vcom=3-110.png,none.png,unmotivated,3.0,fall,left,hard,,569.0722867919976,570.4621359590019,correct,576.2198960840033,1.3485802089999197,fall,left,5.0,,,,
stim_set/hard-549.png,none.png,unmotivated,3.25,stand,right,hard,,576.2204415840024,578.8955514170011,correct,584.4294103749999,2.6262215419992567,stand,right,3.0,,,,
stim_set/hard-vcom=1-3.png,none.png,unmotivated,2.75,fall,left,hard,,584.4302269170003,585.6186839590008,correct,591.0728984590022,1.135478084004717,fall,left,5.0,,,,
stim_set/hard-vcom=2-110.png,none.png,unmotivated,3.0,fall,left,hard,,591.0734438340005,594.0100407089994,incorrect,599.3238070419975,2.885983125001076,stand,right,2.0,,,,
stim_set/hard-7.png,none.png,unmotivated,2.25,stand,right,hard,,599.3245428340015,601.7784957089971,incorrect,607.6544252500025,2.4018684999973634,fall,left,3.0,,,,
stim_set/hard-21.png,none.png,unmotivated,4.0,stand,right,hard,,607.6549912089977,610.4786336250037,incorrect,616.7158613749998,2.776744957998744,fall,left,2.0,,,,
stim_set/hard-vcom=4-142.png,none.png,unmotivated,4.0,fall,left,hard,,616.7166656670015,618.2602096249975,incorrect,625.3569632090002,1.4903427919998649,stand,right,3.0,,,,
stim_set/hard-91.png,none.png,unmotivated,2.25,stand,right,hard,,625.3575103339973,627.6285774170027,incorrect,633.1498700000011,2.221906999999192,fall,left,3.0,,,,
stim_set/easy-77.png,none.png,unmotivated,3.0,stand,right,easy,,633.1504051250013,635.235162500001,correct,643.4551991670013,2.032557208003709,stand,right,5.0,,,,
stim_set/easy-vcom=4-19.png,none.png,unmotivated,3.25,fall,left,easy,,643.455809209001,645.6616397089965,incorrect,651.7736570839987,2.15484608400584,stand,right,5.0,,,,
stim_set/hard-vcom=1-50.png,none.png,unmotivated,3.75,fall,left,hard,,651.7742155000013,653.1934722919978,correct,661.5057308749965,1.362605916998291,fall,left,3.0,661.5060624170001,,,
stim_set/easy-vcom=2-20.png,stand.png,cooperation,4.0,fall,left,easy,0.00015729200094938278,0.0007411249971482903,7.827149333003035,correct,16.31685537500016,2.7848120420021587,fall,left,2,,,,1.012456333002774
stim_set/hard-570.png,stand.png,cooperation,2.0,stand,right,hard,,16.31749129200034,24.60162954199768,correct,30.22804541700316,3.239875375002157,stand,right,2,,,,17.3283806670006
stim_set/hard-vcom=3-110.png,stand.png,cooperation,2.0,fall,left,hard,,30.228578207999817,36.853581707997364,correct,41.69938404200366,1.5951262500020675,fall,left,4,,,,31.239738541997212
stim_set/hard-600.png,fall.png,cooperation,3.0,stand,right,hard,,41.699924000000465,50.918395957996836,incorrect,56.490997375003644,4.183857667005213,fall,left,3,,,,42.71126795800228
stim_set/hard-244.png,stand.png,cooperation,2.5,stand,right,hard,,56.4916424999974,63.19321420799679,correct,68.695217667002,1.6571519170029205,stand,right,4,,,,57.50219404199743
stim_set/easy-vcom=1-73.png,stand.png,cooperation,2.5,fall,left,easy,,68.69587062500068,76.00298154199845,correct,81.3192100419983,2.277892915997654,fall,left,4,,,,69.70626895799796
stim_set/easy-vcom=3-15.png,fall.png,cooperation,3.0,fall,left,easy,,81.32000245800009,91.37771862500085,incorrect,96.17582262500218,,,,,,,,82.32991362499888
stim_set/hard-vcom=3-145.png,stand.png,cooperation,3.75,fall,left,hard,,96.17640574999677,102.30317449999711,incorrect,109.15291979200265,1.0972595839994028,stand,right,3,,,,97.18682116700074
stim_set/easy-vcom=3-74.png,fall.png,cooperation,2.25,fall,left,easy,,109.15352041699953,115.96949729199696,correct,120.51612983299856,1.7767855409983895,fall,left,4,,,,110.16384487500181
stim_set/easy-77.png,fall.png,cooperation,2.5,stand,right,easy,,120.5166831250026,127.26767533300153,correct,132.26300154199998,1.7113868340020417,stand,right,5,,,,121.52765708300285
stim_set/easy-538.png,stand.png,cooperation,2.5,stand,right,easy,,132.2635560830022,138.720026666997,correct,143.78179637499852,1.4218964999963646,stand,right,5,,,,133.27423162500054
stim_set/hard-vcom=3-34.png,fall.png,cooperation,3.25,fall,left,hard,,143.78242129200225,150.20920079200005,correct,155.86000583299756,1.382244583001011,fall,left,5,,,,144.79286316700018
stim_set/hard-vcom=4-139.png,stand.png,cooperation,2.75,fall,left,hard,,155.86058016699826,162.63414062499942,incorrect,168.61030445800134,1.7340970000004745,stand,right,4,,,,156.8713855829992
stim_set/easy-13.png,fall.png,cooperation,3.25,stand,right,easy,,168.6108972919974,175.0774562919978,correct,181.27644195799803,1.4276562919985736,stand,right,4,,,,169.62095291700098
stim_set/hard-280.png,stand.png,cooperation,3.25,stand,right,hard,,181.2769648329995,189.0690449169997,correct,198.90396429200337,2.7528335000024526,stand,right,4,,,,182.28754816699802
stim_set/hard-599.png,fall.png,cooperation,2.0,stand,right,hard,,198.90452120800182,205.37547949999862,incorrect,209.66676929200185,1.4375014590041246,fall,left,5,,,,199.91495583300275
stim_set/hard-402.png,fall.png,cooperation,3.75,stand,right,hard,,209.667301417001,216.14405370799795,incorrect,222.78465375000087,1.4383633749966975,fall,left,3,,,,210.67775245800294
stim_set/easy-vcom=2-147.png,fall.png,cooperation,3.0,fall,left,easy,,222.78516720799962,229.08370033300162,correct,234.44947479200346,1.2572865840047598,fall,left,4,,,,223.79520495799807
stim_set/hard-2.png,stand.png,cooperation,3.25,stand,right,hard,,234.45006916700368,240.8003784169996,correct,246.37082095799997,1.307569249998778,stand,right,4,,,,235.46075949999795
stim_set/hard-566.png,fall.png,cooperation,3.25,stand,right,hard,,246.37137291699764,252.51049012500152,incorrect,258.635554708002,1.099278540998057,fall,left,4,,,,247.38154091699835
stim_set/easy-590.png,fall.png,cooperation,4.0,stand,right,easy,,258.63609404199815,264.97697479199996,correct,271.4412045420031,1.301125416001014,stand,right,5,,,,259.6467004169972
stim_set/easy-vcom=4-126.png,stand.png,cooperation,2.5,fall,left,easy,,271.44185670799925,279.7687050829991,incorrect,284.90226158300356,3.2860917919970234,stand,right,3,,,,272.4529989579969
stim_set/easy-vcom=2-94.png,stand.png,cooperation,4.0,fall,left,easy,,284.9027962079999,292.47494562499924,correct,298.89725741700386,2.5325523749997956,fall,left,3,,,,285.9133595000021
stim_set/hard-vcom=2-147.png,fall.png,cooperation,2.5,fall,left,hard,,298.89791612500267,305.2766144999987,correct,310.2853880830007,1.3495093749952503,fall,left,5,,,,299.9084567500031
stim_set/easy-411.png,stand.png,cooperation,2.0,stand,right,easy,,310.2859336670008,316.7166058750008,correct,321.2892477080022,1.3869527499991818,stand,right,5,,,,311.29640383300284
stim_set/hard-vcom=3-7.png,fall.png,cooperation,2.75,fall,left,hard,,321.2898049580035,327.51637566700083,correct,332.6952247079971,1.1859050000057323,fall,left,5,,,,322.30049637499906
stim_set/hard-14.png,fall.png,cooperation,2.5,stand,right,hard,,332.6958425420016,339.10996012500254,incorrect,344.04431016700255,1.3833319160039537,fall,left,4,,,,333.70687833300326
stim_set/hard-49.png,stand.png,cooperation,3.0,stand,right,hard,,344.044979833001,350.7844613330017,correct,356.1770984169998,1.698427957999229,stand,right,3,,,,345.0561882499969
stim_set/hard-82.png,fall.png,cooperation,2.25,stand,right,hard,,356.1776440419999,362.7179780419974,correct,367.33946083299816,1.5021740829979535,stand,right,4,,,,357.18812083300145
stim_set/hard-492.png,stand.png,cooperation,2.25,stand,right,hard,,367.3401140420028,374.4161860000022,incorrect,379.0191404580037,2.0343973749986617,fall,left,3,,,,368.350812167002
stim_set/hard-345.png,stand.png,cooperation,2.25,stand,right,hard,,379.01969012500194,385.1494633330003,correct,389.9473547079979,1.0898848329961766,stand,right,5,,,,380.0302482920015
stim_set/hard-40.png,fall.png,cooperation,3.0,stand,right,hard,,389.9478886249999,396.6245982920009,incorrect,402.7783961669993,1.6331194169979426,fall,left,5,,,,390.9584116670012
stim_set/easy-vcom=2-3.png,stand.png,cooperation,3.75,fall,left,easy,,402.7789381670009,410.8576648329981,correct,417.0384211249984,3.036624207998102,fall,left,3,,,,403.7896670420014
stim_set/hard-vcom=1-50.png,stand.png,cooperation,4.0,fall,left,hard,,417.03899070800253,424.0409697080031,incorrect,431.1138946670035,1.9574756250003702,stand,right,2,,,,418.049465666998
stim_set/hard-vcom=1-30.png,fall.png,cooperation,2.5,fall,left,hard,,431.11470587499934,437.40119754199986,correct,442.49980320800387,1.2522931249986868,fall,left,5,,,,432.12517204199685
stim_set/hard-369.png,stand.png,cooperation,2.5,stand,right,hard,,442.50036454200017,450.41588495799806,correct,455.2131922499975,2.8822069160014507,stand,right,2,,,,443.5107325420031
stim_set/hard-vcom=1-3.png,stand.png,cooperation,2.25,fall,left,hard,,455.2137164579981,461.7406888330006,correct,466.35397787499824,1.4857009580009617,fall,left,5,,,,456.2244811249984
stim_set/easy-vcom=4-69.png,fall.png,cooperation,4.0,fall,left,easy,,466.3545432500032,472.89256020799803,incorrect,479.4243874169988,1.4998862499996903,stand,right,5,,,,467.36435695800174
stim_set/easy-344.png,stand.png,cooperation,2.75,stand,right,easy,,479.4249444169982,486.25909087499895,correct,491.5662522499988,1.7999556249997113,stand,right,5,,,,480.43547599999874
stim_set/hard-564.png,fall.png,cooperation,2.25,stand,right,hard,,491.56681350000144,498.0486909169995,incorrect,502.8749825420018,1.4392093749993364,fall,left,5,502.8753123330025,,,492.57690845800244
stim_set/hard-vcom=3-142.png,stand.png,cooperation,4.0,fall,left,hard,536.5028714579967,536.5036894579971,543.964968041997,incorrect,550.897087917001,2.4145156670056167,stand,right,3,,,,537.5174881670027
stim_set/hard-382.png,stand.png,cooperation,3.75,stand,right,hard,,550.8976942079971,558.3146787079968,incorrect,564.893767667003,2.382974291998835,fall,left,3,,,,551.9080687919995
stim_set/hard-vcom=4-75.png,fall.png,cooperation,2.0,fall,left,hard,,564.8943112080015,571.9231893329998,correct,576.3113921249969,1.9856991249980638,fall,left,4,,,,565.9044242079981
stim_set/hard-321.png,fall.png,cooperation,2.25,stand,right,hard,,576.3119444580007,582.5148915829996,incorrect,587.1701907919996,1.1644757090034545,fall,left,5,,,,577.3219283330036
stim_set/hard-vcom=2-20.png,stand.png,cooperation,2.0,fall,left,hard,,587.1707848750011,593.8981058330028,correct,598.3118868329984,1.6839544579997892,fall,left,4,,,,588.1811681670006
stim_set/hard-vcom=4-23.png,fall.png,cooperation,3.0,fall,left,hard,,598.3124236669973,605.8993482919977,incorrect,611.5916146669988,2.552430750001804,stand,right,3,,,,599.3223005420004
stim_set/hard-vcom=1-136.png,stand.png,cooperation,2.75,fall,left,hard,,611.5922702500029,619.5394381669976,incorrect,625.4871506670024,2.9078363750013523,stand,right,3,,,,612.6026121670002
stim_set/hard-vcom=1-95.png,fall.png,cooperation,2.5,fall,left,hard,,625.4877570000026,632.0893936670036,incorrect,637.5580267499972,1.5621237500017742,stand,right,3,,,,626.4985087079986
stim_set/easy-vcom=1-12.png,stand.png,cooperation,2.25,fall,left,easy,,637.5585902500025,644.2394050829971,correct,648.9692414579986,1.6367852080002194,fall,left,5,,,,638.5689000830025
stim_set/hard-vcom=2-137.png,stand.png,cooperation,2.25,fall,left,hard,,648.9697564169983,657.1325660829971,correct,661.9121276669975,3.129592416997184,fall,left,2,,,,649.980287917002
stim_set/hard-vcom=2-16.png,fall.png,cooperation,2.25,fall,left,hard,,661.9126493329968,668.9227082500001,correct,673.6731003329987,1.965232541995647,fall,left,3,,,,662.9228327079982
stim_set/hard-vcom=2-100.png,stand.png,cooperation,4.0,fall,left,hard,,673.6737487920036,681.0974555830035,correct,687.6862415420037,2.38291329099593,fall,left,5,,,,674.6842925829988
stim_set/hard-441.png,fall.png,cooperation,2.0,stand,right,hard,,687.6868475829979,695.3139573329972,correct,700.6407432499982,2.58926466700359,stand,right,3,,,,688.6974296670014
stim_set/hard-vcom=3-82.png,fall.png,cooperation,2.5,fall,left,hard,,700.6413326670008,706.8724325829971,correct,712.3145160420027,1.1886420829978306,fall,left,4,,,,701.6513037080003
stim_set/hard-549.png,stand.png,cooperation,2.25,stand,right,hard,,712.3150367080016,720.1139301669973,incorrect,724.6244419580034,2.7579733750026207,fall,left,2,,,,713.3254156670009
stim_set/hard-391.png,stand.png,cooperation,2.75,stand,right,hard,,724.6250878749997,731.5721441249989,incorrect,736.6206071670022,1.9072742089992971,fall,left,5,,,,725.635879292
stim_set/hard-367.png,fall.png,cooperation,3.75,stand,right,hard,,736.6211853749992,743.8825405419993,correct,750.6051449169972,2.226457584001764,stand,right,2,,,,737.6313036670035
stim_set/easy-vcom=4-19.png,fall.png,cooperation,2.25,fall,left,easy,,750.6057452919995,757.4221247079986,incorrect,762.200820500002,1.7720317499988596,stand,right,5,,,,751.6162555830015
stim_set/hard-vcom=4-80.png,stand.png,cooperation,4.0,fall,left,hard,,762.2013730000035,768.4905220829969,correct,774.8626952080012,1.2497730830000364,fall,left,4,,,,763.2118203749997
stim_set/hard-vcom=4-142.png,fall.png,cooperation,2.25,fall,left,hard,,774.8632355419977,781.9884437080036,correct,786.7124462920037,2.085048332999577,fall,left,3,,,,775.8736563330021
stim_set/hard-21.png,fall.png,cooperation,2.5,stand,right,hard,,786.713203708001,793.0134148330035,incorrect,797.8344104580028,1.2613869170018006,fall,left,4,,,,787.7233745830017
stim_set/easy-vcom=3-38.png,stand.png,cooperation,2.25,fall,left,easy,,797.8350287499998,804.4134449580015,incorrect,809.3123629170004,1.5346805829976802,stand,right,2,,,,798.8453366670001
stim_set/easy-vcom=3-142.png,fall.png,cooperation,3.25,fall,left,easy,,809.3129071669973,816.9717095419983,correct,822.4641705829999,2.6170246670008055,fall,left,3,,,,810.3230458329999
stim_set/easy-164.png,stand.png,cooperation,3.75,stand,right,easy,,822.464726416998,828.681937333,correct,835.0120547080005,1.1773371250019409,stand,right,5,,,,823.4753049170031
stim_set/hard-316.png,fall.png,cooperation,2.5,stand,right,hard,,835.0126136670006,841.3631741249992,incorrect,846.5221969999984,1.310817625002528,fall,left,3,,,,836.0227679579984
stim_set/hard-vcom=4-92.png,stand.png,cooperation,2.25,fall,left,hard,,846.522796833,853.6547112080007,correct,858.2873323750027,2.087634457995591,fall,left,4,,,,847.5334204579995
stim_set/hard-78.png,fall.png,cooperation,2.25,stand,right,hard,,858.2878712500024,864.4733262079972,incorrect,869.0805563750037,1.1486321659976966,fall,left,5,,,,859.2974602079994
stim_set/easy-280.png,stand.png,cooperation,3.0,stand,right,easy,,869.0811135420008,875.4879562499991,correct,887.4160205000007,1.3663371250004275,stand,right,4,,,,870.0914048330014
stim_set/easy-vcom=1-87.png,fall.png,cooperation,2.5,fall,left,easy,,887.4167511670021,895.3563830420026,correct,900.6172034580013,2.901623292003933,fall,left,4,,,,888.4271918329978
stim_set/easy-vcom=1-145.png,stand.png,cooperation,3.75,fall,left,easy,,900.6177357499982,907.5211636250024,correct,913.5713116249972,1.8614650000017718,fall,left,5,,,,901.6280488330012
stim_set/hard-91.png,fall.png,cooperation,3.75,stand,right,hard,,913.5718795830035,919.8212467080011,incorrect,925.9237684999971,1.2076790000064648,fall,left,4,,,,914.5821220419966
stim_set/hard-182.png,stand.png,cooperation,2.75,stand,right,hard,,925.924321874998,932.5061723749968,incorrect,937.6514641670001,1.5528109169972595,fall,left,4,,,,926.934795125002
stim_set/hard-177.png,stand.png,cooperation,2.0,stand,right,hard,,937.6521206250036,943.9956929580003,incorrect,948.9890203750037,1.3093993340007728,fall,left,4,,,,938.6627777500034
stim_set/hard-132.png,fall.png,cooperation,3.0,stand,right,hard,,948.989610208002,955.0227588330017,incorrect,960.3097853330037,0.9972968750007567,fall,left,5,,,,949.9998227500037
stim_set/hard-vcom=2-110.png,fall.png,cooperation,2.5,fall,left,hard,,960.3103765830019,967.3227344580009,correct,972.0171981250023,1.9784979579999344,fall,left,3,,,,961.3204156670035
stim_set/hard-214.png,fall.png,cooperation,3.25,stand,right,hard,,972.0178921670013,978.4456750419995,incorrect,984.0309319579974,1.383844208001392,fall,left,5,,,,973.0283540419987
stim_set/hard-334.png,stand.png,cooperation,2.75,stand,right,hard,,984.0314851669973,990.364234749999,incorrect,995.4589831249978,1.2985592499971972,fall,left,5,,,,985.0420972080028
stim_set/hard-vcom=1-130.png,fall.png,cooperation,2.5,fall,left,hard,,995.4595997080032,1001.7975507500014,correct,1006.7049048330009,1.3030586669992772,fall,left,5,,,,996.4699442080018
stim_set/hard-7.png,stand.png,cooperation,2.75,stand,right,hard,,1006.7055131669986,1013.386998791997,incorrect,1018.7308719170032,1.63693074999901,fall,left,5,,,,1007.7162895000001
stim_set/hard-vcom=4-147.png,fall.png,cooperation,3.25,fall,left,hard,,1018.7314100419972,1025.1224125419976,correct,1030.750388792003,1.3509187090021442,fall,left,5,1030.7507259580016,,,1019.7419631669982
stim_set/easy-vcom=4-126.png,stand.png,competition,3.0,fall,left,easy,,,,,,,,,,,,,
stim_set/easy-280.png,stand.png,competition,3.75,stand,right,easy,,,,,,,,,,,,,
stim_set/hard-321.png,fall.png,competition,3.0,stand,right,hard,,,,,,,,,,,,,
stim_set/hard-vcom=2-147.png,stand.png,competition,2.0,fall,left,hard,,,,,,,,,,,,,
stim_set/hard-2.png,fall.png,competition,2.75,stand,right,hard,,,,,,,,,,,,,
stim_set/easy-vcom=2-3.png,fall.png,competition,2.5,fall,left,easy,,,,,,,,,,,,,
stim_set/hard-21.png,stand.png,competition,2.25,stand,right,hard,,,,,,,,,,,,,
stim_set/easy-vcom=1-12.png,fall.png,competition,2.75,fall,left,easy,,,,,,,,,,,,,
stim_set/easy-vcom=2-147.png,stand.png,competition,2.5,fall,left,easy,,,,,,,,,,,,,
stim_set/hard-367.png,fall.png,competition,3.0,stand,right,hard,,,,,,,,,,,,,
stim_set/hard-vcom=4-80.png,stand.png,competition,2.5,fall,left,hard,,,,,,,,,,,,,
stim_set/hard-82.png,stand.png,competition,2.25,stand,right,hard,,,,,,,,,,,,,
stim_set/easy-vcom=4-19.png,fall.png,competition,2.0,fall,left,easy,,,,,,,,,,,,,
stim_set/hard-7.png,fall.png,competition,2.0,stand,right,hard,,,,,,,,,,,,,
stim_set/easy-vcom=3-142.png,stand.png,competition,2.5,fall,left,easy,,,,,,,,,,,,,
stim_set/easy-vcom=3-74.png,fall.png,competition,2.25,fall,left,easy,,,,,,,,,,,,,
stim_set/hard-vcom=2-16.png,stand.png,competition,2.25,fall,left,hard,,,,,,,,,,,,,
stim_set/hard-vcom=4-139.png,fall.png,competition,2.5,fall,left,hard,,,,,,,,,,,,,
stim_set/hard-vcom=4-147.png,fall.png,competition,2.5,fall,left,hard,,,,,,,,,,,,,
stim_set/easy-vcom=1-87.png,stand.png,competition,2.5,fall,left,easy,,,,,,,,,,,,,
stim_set/easy-vcom=4-69.png,fall.png,competition,3.0,fall,left,easy,,,,,,,,,,,,,
stim_set/hard-316.png,fall.png,competition,3.75,stand,right,hard,,,,,,,,,,,,,
stim_set/easy-13.png,stand.png,competition,2.25,stand,right,easy,,,,,,,,,,,,,
stim_set/hard-182.png,stand.png,competition,2.25,stand,right,hard,,,,,,,,,,,,,
stim_set/hard-vcom=4-92.png,fall.png,competition,3.75,fall,left,hard,,,,,,,,,,,,,
stim_set/hard-564.png,stand.png,competition,4.0,stand,right,hard,,,,,,,,,,,,,
stim_set/hard-vcom=1-3.png,stand.png,competition,2.5,fall,left,hard,,,,,,,,,,,,,
stim_set/easy-164.png,fall.png,competition,2.5,stand,right,easy,,,,,,,,,,,,,
stim_set/hard-vcom=1-50.png,fall.png,competition,3.75,fall,left,hard,,,,,,,,,,,,,
stim_set/hard-vcom=1-95.png,fall.png,competition,2.25,fall,left,hard,,,,,,,,,,,,,
stim_set/hard-280.png,fall.png,competition,2.5,stand,right,hard,,,,,,,,,,,,,
stim_set/hard-14.png,stand.png,competition,4.0,stand,right,hard,,,,,,,,,,,,,
stim_set/hard-78.png,fall.png,competition,2.5,stand,right,hard,,,,,,,,,,,,,
stim_set/hard-91.png,fall.png,competition,2.0,stand,right,hard,,,,,,,,,,,,,
stim_set/hard-vcom=1-30.png,stand.png,competition,2.75,fall,left,hard,,,,,,,,,,,,,
stim_set/hard-vcom=2-137.png,fall.png,competition,3.0,fall,left,hard,,,,,,,,,,,,,
stim_set/hard-vcom=1-130.png,fall.png,competition,3.25,fall,left,hard,,,,,,,,,,,,,
stim_set/hard-vcom=4-23.png,stand.png,competition,3.25,fall,left,hard,,,,,,,,,,,,,
stim_set/hard-vcom=3-34.png,stand.png,competition,2.5,fall,left,hard,,,,,,,,,,,,,
stim_set/hard-441.png,fall.png,competition,4.0,stand,right,hard,,,,,,,,,,,,,
stim_set/hard-244.png,stand.png,competition,4.0,stand,right,hard,,,,,,,,,,,,,
stim_set/hard-vcom=3-7.png,stand.png,competition,2.25,fall,left,hard,,,,,,,,,,,,,
stim_set/easy-411.png,stand.png,competition,2.25,stand,right,easy,,,,,,,,,,,,,
stim_set/hard-vcom=2-20.png,fall.png,competition,3.75,fall,left,hard,,,,,,,,,,,,,
stim_set/easy-vcom=2-94.png,stand.png,competition,4.0,fall,left,easy,,,,,,,,,,,,,
stim_set/hard-vcom=3-110.png,fall.png,competition,2.5,fall,left,hard,,,,,,,,,,,,,
stim_set/hard-vcom=1-136.png,fall.png,competition,3.25,fall,left,hard,,,,,,,,,,,,,
stim_set/hard-vcom=2-100.png,stand.png,competition,2.75,fall,left,hard,,,,,,,,,,,,,
stim_set/easy-vcom=3-15.png,stand.png,competition,3.0,fall,left,easy,,,,,,,,,,,,,
stim_set/easy-590.png,fall.png,competition,4.0,stand,right,easy,,,,,,,,,,,,,
stim_set/hard-600.png,stand.png,competition,2.25,stand,right,hard,,,,,,,,,,,,,
stim_set/hard-40.png,fall.png,competition,2.25,stand,right,hard,,,,,,,,,,,,,
stim_set/easy-vcom=1-73.png,stand.png,competition,4.0,fall,left,easy,,,,,,,,,,,,,
stim_set/hard-492.png,fall.png,competition,2.25,stand,right,hard,,,,,,,,,,,,,
stim_set/hard-382.png,stand.png,competition,2.0,stand,right,hard,,,,,,,,,,,,,
stim_set/hard-vcom=2-110.png,fall.png,competition,2.25,fall,left,hard,,,,,,,,,,,,,
stim_set/hard-334.png,stand.png,competition,3.25,stand,right,hard,,,,,,,,,,,,,
stim_set/hard-49.png,fall.png,competition,3.75,stand,right,hard,,,,,,,,,,,,,
stim_set/hard-vcom=4-142.png,fall.png,competition,2.75,fall,left,hard,,,,,,,,,,,,,
stim_set/hard-vcom=3-145.png,stand.png,competition,4.0,fall,left,hard,,,,,,,,,,,,,
stim_set/hard-345.png,fall.png,competition,3.25,stand,right,hard,,,,,,,,,,,,,
stim_set/hard-599.png,stand.png,competition,2.25,stand,right,hard,,,,,,,,,,,,,
stim_set/hard-549.png,fall.png,competition,2.75,stand,right,hard,,,,,,,,,,,,,
stim_set/hard-177.png,stand.png,competition,3.75,stand,right,hard,,,,,,,,,,,,,
stim_set/easy-vcom=1-145.png,fall.png,competition,2.5,fall,left,easy,,,,,,,,,,,,,
stim_set/hard-214.png,stand.png,competition,2.0,stand,right,hard,,,,,,,,,,,,,
stim_set/easy-538.png,fall.png,competition,2.5,stand,right,easy,,,,,,,,,,,,,
stim_set/hard-vcom=4-75.png,stand.png,competition,3.25,fall,left,hard,,,,,,,,,,,,,
stim_set/hard-vcom=3-82.png,fall.png,competition,2.25,fall,left,hard,,,,,,,,,,,,,
stim_set/hard-570.png,stand.png,competition,2.0,stand,right,hard,,,,,,,,,,,,,
stim_set/hard-566.png,fall.png,competition,3.75,stand,right,hard,,,,,,,,,,,,,
stim_set/hard-vcom=3-142.png,stand.png,competition,2.75,fall,left,hard,,,,,,,,,,,,,
stim_set/easy-vcom=3-38.png,stand.png,competition,2.5,fall,left,easy,,,,,,,,,,,,,
stim_set/easy-77.png,fall.png,competition,2.0,stand,right,easy,,,,,,,,,,,,,
stim_set/easy-vcom=2-20.png,fall.png,competition,3.0,fall,left,easy,,,,,,,,,,,,,
stim_set/hard-402.png,stand.png,competition,2.25,stand,right,hard,,,,,,,,,,,,,
stim_set/hard-369.png,fall.png,competition,3.0,stand,right,hard,,,,,,,,,,,,,
stim_set/easy-344.png,fall.png,competition,3.25,stand,right,easy,,,,,,,,,,,,,
stim_set/hard-391.png,stand.png,competition,3.25,stand,right,hard,,,,,,,,,,,,,
stim_set/hard-132.png,fall.png,competition,2.75,stand,right,hard,,,,,,,,,,,,,
stim_set/hard-410.png,stand.png,cooperation,3.75,stand,right,hard,2.8750000637955964e-06,0.002283333000377752,8.198750124996877,correct,16.994637499999953,3.1789322500044364,stand,right,3,16.995156291995954,,,1.0159093330003088
stim_set/hard-188.png,stand.png,competition,4.0,stand,right,hard,,,,,,,,,,,,,
