towers,bet,condition,iti,corr_choice,corr_key,difficulty,block_start,trial_start,stim_on,acc,rt,part_choice,part_key,confidence,trial_end,block_end,updated_score,condition_first,cue_on,condition_second
stim_set/hard-600.png,none.png,unmotivated,2.5,stand,right,hard,3.3329997677356005e-06,0.002852917008567601,1.1766255420079688,incorrect,1.1286175419954816,fall,left,5.0,9.098746292002033,,215.0,cooperation,,competition
stim_set/hard-vcom=4-147.png,none.png,unmotivated,2.25,fall,left,hard,,9.100172833001123,11.115898375006509,correct,1.9590452080010439,fall,left,3.0,16.7893795830023,,435.0,,,
stim_set/easy-vcom=1-12.png,none.png,unmotivated,2.0,fall,left,easy,,16.789926416997332,19.632586667008574,correct,2.786650832989835,fall,left,3.0,24.21095629200863,,645.0,,,
stim_set/hard-492.png,none.png,unmotivated,2.0,stand,right,hard,,24.211502292004297,25.799209667005925,correct,1.533574500004761,stand,right,4.0,31.08447654200427,,,,,
stim_set/hard-vcom=2-137.png,none.png,unmotivated,3.0,fall,left,hard,,31.085038999997767,34.34921533300076,correct,3.2138305410044268,fall,left,2.0,40.298552457999904,,,,,
stim_set/easy-vcom=2-147.png,none.png,unmotivated,3.25,fall,left,easy,,40.299158833004185,43.376405000002705,correct,3.0266984169866187,fall,left,2.0,49.90148133299954,,,,,
stim_set/easy-vcom=1-73.png,none.png,unmotivated,2.5,fall,left,easy,,49.90214120800374,54.74273387499852,incorrect,4.798684624998714,stand,right,2.0,59.87898312500329,,,,,
stim_set/easy-344.png,none.png,unmotivated,4.0,stand,right,easy,,59.87957062500936,61.04074599999876,correct,1.1094986249954673,stand,right,5.0,68.63546791700355,,,,,
stim_set/easy-vcom=4-126.png,none.png,unmotivated,2.5,fall,left,easy,,68.63602375000481,69.70737899999949,incorrect,1.014738625002792,stand,right,5.0,74.77505987499899,,,,,
stim_set/hard-vcom=2-147.png,none.png,unmotivated,2.5,fall,left,hard,,74.77564175000589,76.83210733300075,correct,2.0107863750017723,fall,left,3.0,82.36702904199774,,,,,
stim_set/hard-132.png,none.png,unmotivated,3.75,stand,right,hard,,82.36759012499533,83.89214558299864,incorrect,1.4771433749992866,fall,left,5.0,89.76878391699573,,,,,
stim_set/hard-vcom=3-7.png,none.png,unmotivated,2.75,fall,left,hard,,89.76959437500045,91.13211954200231,correct,1.3105784579965984,fall,left,5.0,96.31283408300078,,,,,
stim_set/hard-391.png,none.png,unmotivated,2.25,stand,right,hard,,96.31342025000777,97.5338144999987,incorrect,1.1730765829997836,fall,left,5.0,102.25226995800041,,,,,
stim_set/hard-402.png,none.png,unmotivated,2.5,stand,right,hard,,102.25281391700264,103.69047204199889,incorrect,1.3826504589960678,fall,left,5.0,108.79783566700644,,,,,
stim_set/easy-13.png,none.png,unmotivated,2.5,stand,right,easy,,108.79839454199828,109.84025245800149,correct,0.9846974999964004,stand,right,5.0,114.74192858299648,,,,,
stim_set/hard-367.png,none.png,unmotivated,2.5,stand,right,hard,,114.74247562499659,116.85722879199602,incorrect,2.0617125000135275,fall,left,2.0,121.99787029200523,,,,,
stim_set/easy-vcom=2-20.png,none.png,unmotivated,2.25,fall,left,easy,,121.99841949999971,123.60689774999628,correct,1.556889500003308,fall,left,3.0,128.499905167002,,,,,
stim_set/hard-316.png,none.png,unmotivated,2.0,stand,right,hard,,128.500460167008,133.56536162500558,incorrect,,,,,137.94596295800878,,,,,
stim_set/hard-82.png,none.png,unmotivated,3.75,stand,right,hard,,137.94664037499751,139.4402859999973,correct,1.4383964160078904,stand,right,4.0,146.02455945800466,,,,,
stim_set/hard-564.png,none.png,unmotivated,3.75,stand,right,hard,,146.025046499999,147.21523562500082,incorrect,1.1353443749976575,fall,left,5.0,153.46473375000642,,,,,
stim_set/hard-vcom=3-142.png,none.png,unmotivated,3.25,fall,left,hard,,153.46525208299863,155.23177045800546,incorrect,1.709863124997355,stand,right,4.0,160.9247913330037,,,,,
stim_set/hard-566.png,none.png,unmotivated,3.75,stand,right,hard,,160.92536241700873,161.95100858299705,incorrect,0.9728603340045084,fall,left,5.0,167.9924841250031,,,,,
stim_set/hard-280.png,none.png,unmotivated,2.25,stand,right,hard,,167.99309054200418,170.75034629199945,correct,2.7058316249895142,stand,right,4.0,175.42047095800808,,,,,
stim_set/hard-vcom=3-145.png,none.png,unmotivated,2.75,fall,left,hard,,175.4210180000082,177.59209679199554,correct,2.129143791011302,fall,left,3.0,182.64832700000255,,,,,
stim_set/easy-vcom=2-94.png,none.png,unmotivated,2.75,fall,left,easy,,182.64888654199603,183.6397851250076,incorrect,0.9391612920007901,stand,right,5.0,188.90419400000252,,,,,
stim_set/hard-vcom=4-80.png,none.png,unmotivated,3.75,fall,left,hard,,188.90473004200612,190.3482317080052,correct,1.3866212089924377,fall,left,5.0,196.57612970800255,,,,,
stim_set/hard-599.png,none.png,unmotivated,3.0,stand,right,hard,,196.57668762499816,197.55673837500217,correct,0.9343064999993658,stand,right,5.0,202.946500792008,,,,,
stim_set/hard-182.png,none.png,unmotivated,4.0,stand,right,hard,,202.94706337500247,204.03170304199745,incorrect,1.0384444579976844,fall,left,5.0,210.45790779200613,,,,,
stim_set/hard-570.png,none.png,unmotivated,2.25,stand,right,hard,,210.4587379580044,212.14840058299887,incorrect,1.6332112910022258,fall,left,5.0,216.76459770799562,,,,,
stim_set/easy-vcom=4-69.png,none.png,unmotivated,2.25,fall,left,easy,,216.76513716700717,217.85662449999654,incorrect,1.0353915000014242,stand,right,4.0,222.57971116699628,,,,,
stim_set/easy-280.png,none.png,unmotivated,3.0,stand,right,easy,,222.58026366699772,223.51491966699538,correct,0.8825296670111129,stand,right,5.0,228.84916329200496,,,,,
stim_set/hard-2.png,none.png,unmotivated,2.75,stand,right,hard,,228.8497159580001,230.71494116699608,correct,1.810839792000479,stand,right,3.0,235.8471784580033,,,,,
stim_set/hard-vcom=2-100.png,none.png,unmotivated,3.25,fall,left,hard,,235.84774974999888,237.014746832996,correct,1.1140021669998532,fall,left,5.0,242.90042758300842,,,,,
stim_set/hard-177.png,none.png,unmotivated,2.0,stand,right,hard,,242.90092183300288,244.03144358300773,incorrect,1.0840021670010174,fall,left,4.0,248.5849643330003,,,,,
stim_set/hard-244.png,none.png,unmotivated,3.25,stand,right,hard,,248.58551754200016,249.65658612499828,incorrect,1.0140507089963648,fall,left,4.0,255.2431597499963,,,,,
stim_set/easy-538.png,none.png,unmotivated,2.5,stand,right,easy,,255.24370283300232,256.0814615420095,correct,0.7876799160003429,stand,right,5.0,260.9253630000021,,,,,
stim_set/easy-vcom=3-15.png,none.png,unmotivated,2.25,fall,left,easy,,260.9259291250055,262.35011862500687,correct,1.376128499992774,fall,left,3.0,267.19711979200656,,,,,
stim_set/easy-vcom=1-145.png,none.png,unmotivated,3.75,fall,left,easy,,267.1979319170059,268.5246625830041,correct,1.2770192909956677,fall,left,5.0,274.69527925000875,,,,,
stim_set/hard-vcom=4-92.png,none.png,unmotivated,2.75,fall,left,hard,,274.6959277499991,276.23993341700407,correct,1.487399165998795,fall,left,5.0,281.7924655420065,,,,,
stim_set/easy-vcom=1-87.png,none.png,unmotivated,3.0,fall,left,easy,,281.79302758300037,283.156424832996,incorrect,1.3080484170059208,stand,right,5.0,289.0095838749985,289.0099120420054,,,,
stim_set/easy-vcom=3-142.png,none.png,unmotivated,2.75,fall,left,easy,303.1372921250004,303.13798425000283,304.131424332998,incorrect,0.9371669999964072,stand,right,5.0,309.3432419580058,,,,,
stim_set/easy-590.png,none.png,unmotivated,2.5,stand,right,easy,,309.34376808299567,310.3146571249963,correct,0.9137336669955404,stand,right,5.0,315.991505375001,,,,,
stim_set/hard-78.png,none.png,unmotivated,2.25,stand,right,hard,,315.99209100000735,316.9663005420007,incorrect,0.9246713749889748,fall,left,5.0,321.843440208002,,,,,
stim_set/hard-214.png,none.png,unmotivated,3.25,stand,right,hard,,321.8439645830076,322.71466195800167,incorrect,0.8141641249967506,fall,left,4.0,329.33232391699863,,,,,
stim_set/hard-49.png,none.png,unmotivated,2.25,stand,right,hard,,329.3329964580044,331.5977420420095,incorrect,2.207083500004956,fall,left,4.0,336.45080429200607,,,,,
stim_set/hard-441.png,none.png,unmotivated,2.5,stand,right,hard,,336.45136624999583,337.31445033299684,correct,0.8130119580018801,stand,right,5.0,342.2930075830081,,,,,
stim_set/hard-369.png,none.png,unmotivated,2.0,stand,right,hard,,342.29355208300694,343.47269462500117,correct,1.1325739999883808,stand,right,5.0,347.8733857500047,,,,,
stim_set/hard-345.png,none.png,unmotivated,2.5,stand,right,hard,,347.8739574170031,348.7643621669995,correct,0.8382746249990305,stand,right,5.0,353.8289936250076,,,,,
stim_set/easy-vcom=3-38.png,none.png,unmotivated,2.5,fall,left,easy,,353.82954179200175,355.65766029199585,incorrect,1.7766838340030515,stand,right,4.0,360.93285462500353,,,,,
stim_set/hard-vcom=2-16.png,none.png,unmotivated,2.5,fall,left,hard,,360.9334911670012,362.89767624999513,incorrect,1.9068181670008928,stand,right,5.0,367.91713858299767,,,,,
stim_set/easy-vcom=3-74.png,none.png,unmotivated,2.25,fall,left,easy,,367.91768258300726,369.1156409999968,correct,1.1474612500023795,fall,left,3.0,374.09113762500056,,,,,
stim_set/easy-vcom=2-3.png,none.png,unmotivated,4.0,fall,left,easy,,374.0917387920052,375.0406596249959,incorrect,0.8994515829981538,stand,right,5.0,381.40166612500616,,,,,
stim_set/hard-vcom=4-75.png,none.png,unmotivated,2.5,fall,left,hard,,381.40224762499565,382.42260354199965,correct,0.9644494169915558,fall,left,5.0,387.37419229200174,,,,,
stim_set/hard-vcom=3-34.png,none.png,unmotivated,2.0,fall,left,hard,,387.3747293330089,388.54947066699964,correct,1.1218967089953369,fall,left,5.0,392.8891133750003,,,,,
stim_set/easy-164.png,none.png,unmotivated,4.0,stand,right,easy,,392.88979291700525,393.75588312500616,correct,0.8094903750024969,stand,right,5.0,400.3522542499995,,,,,
stim_set/hard-382.png,none.png,unmotivated,2.75,stand,right,hard,,400.35282025000197,401.3662956670013,incorrect,0.9723975829983827,fall,left,3.0,406.62330025000847,,,,,
stim_set/hard-vcom=1-130.png,none.png,unmotivated,2.25,fall,left,hard,,406.6238681249962,407.97431229200447,incorrect,1.3033908329962287,stand,right,3.0,412.5941902080085,,,,,
stim_set/easy-411.png,none.png,unmotivated,4.0,stand,right,easy,,412.5947583750094,413.4637483330007,correct,0.8127341670042371,stand,right,5.0,419.9683108750032,,,,,
stim_set/hard-40.png,none.png,unmotivated,3.0,stand,right,hard,,419.96892162499717,421.39086445800797,incorrect,1.3715791249996985,fall,left,3.0,427.0329144580028,,,,,
stim_set/hard-vcom=4-139.png,none.png,unmotivated,4.0,fall,left,hard,,427.0334820419957,429.2724077080056,correct,2.1866506660007867,fall,left,4.0,436.02512458300043,,,,,
stim_set/hard-vcom=1-30.png,none.png,unmotivated,3.75,fall,left,hard,,436.02567079200526,437.0889698749961,correct,1.0133188750041882,fall,left,5.0,443.3666028750012,,,,,
stim_set/hard-vcom=3-82.png,none.png,unmotivated,2.25,fall,left,hard,,443.3671408329973,445.3806931669968,correct,1.9589371250040133,fall,left,5.0,450.2427685000001,,,,,
stim_set/hard-321.png,none.png,unmotivated,2.25,stand,right,hard,,450.2434138329991,451.1657229170087,incorrect,0.875441292009782,fall,left,5.0,455.9140862080093,,,,,
stim_set/hard-vcom=2-20.png,none.png,unmotivated,2.25,fall,left,hard,,455.91470791700715,456.96579558300436,correct,0.99981295800535,fall,left,4.0,461.57858445800963,,,,,
stim_set/hard-vcom=1-95.png,none.png,unmotivated,2.0,fall,left,hard,,461.57939595800417,462.43895883300866,correct,0.8076577089959756,fall,left,5.0,467.17697166699514,,,,,
stim_set/hard-vcom=4-23.png,none.png,unmotivated,2.5,fall,left,hard,,467.1776715830056,468.49904454199714,incorrect,1.273846041993238,stand,right,4.0,473.43702358299925,,,,,
stim_set/hard-334.png,none.png,unmotivated,2.0,stand,right,hard,,473.4375763330026,475.0224116250029,incorrect,1.5340360410045832,fall,left,3.0,479.6325052500033,,,,,
stim_set/hard-14.png,none.png,unmotivated,3.25,stand,right,hard,,479.6331581249978,481.2486084580014,correct,1.5746121670090358,stand,right,4.0,486.9067058329965,,,,,
stim_set/hard-vcom=1-136.png,none.png,unmotivated,2.5,fall,left,hard,,486.9072384580068,487.8971350829962,correct,0.9380534169904422,fall,left,4.0,493.5983391250047,,,,,
stim_set/hard-vcom=3-110.png,none.png,unmotivated,3.0,fall,left,hard,,493.59887687499565,494.7054685000039,correct,1.0606015829980606,fall,left,5.0,500.14505350000394,,,,,
stim_set/hard-549.png,none.png,unmotivated,3.25,stand,right,hard,,500.1455960000021,501.8136911670008,incorrect,1.614520209011971,fall,left,4.0,508.2910072079976,,,,,
stim_set/hard-vcom=1-3.png,none.png,unmotivated,2.75,fall,left,hard,,508.29157625000516,509.415327249997,correct,1.0753346249985043,fall,left,4.0,514.694216792006,,,,,
stim_set/hard-vcom=2-110.png,none.png,unmotivated,3.0,fall,left,hard,,514.6947781670024,515.7903633329988,correct,1.0492763749934966,fall,left,5.0,522.1071137499966,,,,,
stim_set/hard-7.png,none.png,unmotivated,2.25,stand,right,hard,,522.1077907919971,523.0719171670062,incorrect,0.9066894999996292,fall,left,5.0,528.2185796670092,,,,,
stim_set/hard-21.png,none.png,unmotivated,4.0,stand,right,hard,,528.2191427079962,529.1551845829963,incorrect,0.8839812090009218,fall,left,4.0,535.6480044580094,,,,,
stim_set/hard-vcom=4-142.png,none.png,unmotivated,4.0,fall,left,hard,,535.6486202500091,537.2387400000007,incorrect,1.537485041000764,stand,right,4.0,543.8409572079981,,,,,
stim_set/hard-91.png,none.png,unmotivated,2.25,stand,right,hard,,543.8414710420038,544.8551723749988,incorrect,0.9596065420046216,fall,left,5.0,550.2759409169959,,,,,
stim_set/easy-77.png,none.png,unmotivated,3.0,stand,right,easy,,550.2764798330027,551.2382413330051,correct,0.911150166997686,stand,right,5.0,558.1537934579974,,,,,
stim_set/easy-vcom=4-19.png,none.png,unmotivated,3.25,fall,left,easy,,558.1542795830028,559.246676833005,incorrect,1.0359733329969458,stand,right,5.0,565.0580991669996,,,,,
stim_set/hard-vcom=1-50.png,none.png,unmotivated,3.75,fall,left,hard,,565.0586857500019,566.696682875001,correct,1.581610458000796,fall,left,4.0,572.8460349170055,572.8464454170025,,,,
stim_set/easy-vcom=2-20.png,stand.png,cooperation,4.0,fall,left,easy,0.00015575000725220892,0.0007805000059306622,9.059185459002038,correct,4.0223003330029306,fall,left,4.0,16.565093167009767,,,,1.0124282090109773,
stim_set/hard-570.png,stand.png,cooperation,2.0,stand,right,hard,,16.565703416999895,24.149034084010054,incorrect,2.5385151250084164,fall,left,4.0,29.115764667003532,,,,17.57649287499953,
stim_set/hard-vcom=3-110.png,stand.png,cooperation,2.0,fall,left,hard,,29.11651554200216,36.77594366700214,correct,2.6297149579913817,fall,left,4.0,41.43567825001082,,,,30.127086624997897,
stim_set/hard-600.png,fall.png,cooperation,3.0,stand,right,hard,,41.43622141701053,47.99226633401122,incorrect,1.5258500829950208,fall,left,5.0,53.875842125009505,,,,42.447073709001415,
stim_set/hard-244.png,stand.png,cooperation,2.5,stand,right,hard,,53.87641008400533,61.29215583400219,correct,2.3764297500019893,stand,right,4.0,67.30438254200271,,,,54.88678837500628,
stim_set/easy-vcom=1-73.png,stand.png,cooperation,2.5,fall,left,easy,,67.30500020900217,75.12377604200447,incorrect,2.7836785000108653,stand,right,3.0,80.84680079200189,,,,68.31600858400635,
stim_set/easy-vcom=3-15.png,fall.png,cooperation,3.0,fall,left,easy,,80.84754162500029,87.45899816699966,correct,1.5759872080088826,fall,left,5.0,93.07535450000431,,,,81.85769175000314,
stim_set/hard-vcom=3-145.png,stand.png,cooperation,3.75,fall,left,hard,,93.075891667002,102.08335654200346,incorrect,3.978636959000141,stand,right,5.0,108.28975375001028,,,,94.08654833400215,
stim_set/easy-vcom=3-74.png,fall.png,cooperation,2.25,fall,left,easy,,108.2903974590008,115.00925533400732,correct,1.6791274999995949,fall,left,5.0,120.18114225000319,,,,109.30145412500131,
stim_set/easy-77.png,fall.png,cooperation,2.5,stand,right,easy,,120.18171808400076,126.96524874999885,correct,1.7435723329981556,stand,right,5.0,132.31033687500167,,,,121.19196158400156,
stim_set/easy-538.png,stand.png,cooperation,2.5,stand,right,easy,,132.3109365840064,138.33177504201012,correct,0.9819530000095256,stand,right,5.0,143.2062235839985,,,,133.32146695900886,
stim_set/hard-vcom=3-34.png,fall.png,cooperation,3.25,fall,left,hard,,143.20677262500973,149.56502733399975,correct,1.3133419999940088,fall,left,5.0,155.3169257499976,,,,144.21723283400934,
stim_set/hard-vcom=4-139.png,stand.png,cooperation,2.75,fall,left,hard,,155.31747700000415,163.99000058400267,correct,3.633048625008087,fall,left,4.0,169.2654978339997,,,,156.3280941249977,
stim_set/easy-13.png,fall.png,cooperation,3.25,stand,right,easy,,169.2660736250109,175.74824870900193,correct,1.43826816699584,stand,right,5.0,181.3173377089988,,,,170.27631600000313,
stim_set/hard-280.png,stand.png,cooperation,3.25,stand,right,hard,,181.3178818340093,189.39152904201183,correct,3.0346711250022054,stand,right,5.0,195.1797717919981,,,,182.3283439590014,
stim_set/hard-599.png,fall.png,cooperation,2.0,stand,right,hard,,195.1805033749988,202.0578896670049,incorrect,1.8483508749923203,fall,left,4.0,207.19531762500992,,,,196.19132808400903,
stim_set/hard-402.png,fall.png,cooperation,3.75,stand,right,hard,,207.1958847089991,213.15845045899914,incorrect,0.923913459002506,fall,left,5.0,219.30406920899986,,,,208.2065981670021,
stim_set/easy-vcom=2-147.png,fall.png,cooperation,3.0,fall,left,easy,,219.30464612500512,225.40645504200074,correct,1.060168625001097,fall,left,5.0,231.00211245899845,,,,220.31513758400982,
stim_set/hard-2.png,stand.png,cooperation,3.25,stand,right,hard,,231.0027626670053,237.64154287500423,correct,1.6007750419958031,stand,right,4.0,243.70896879200882,,,,232.01393433399792,
stim_set/hard-566.png,fall.png,cooperation,3.25,stand,right,hard,,243.70951454200255,249.68977266699952,incorrect,0.9362616669968702,fall,left,5.0,256.1660743340035,,,,244.71932020899843,
stim_set/easy-590.png,fall.png,cooperation,4.0,stand,right,easy,,256.16667975000746,262.44798887500656,correct,1.2365923749894137,stand,right,5.0,268.9460375000053,,,,257.1771211669984,
stim_set/easy-vcom=4-126.png,stand.png,cooperation,2.5,fall,left,easy,,268.9466510839993,274.9980743750057,incorrect,1.0068312500079628,stand,right,5.0,279.91873925000255,,,,269.95720783399884,
stim_set/easy-vcom=2-94.png,stand.png,cooperation,4.0,fall,left,easy,,279.919271250008,287.6083748340025,incorrect,2.6536992920009648,stand,right,3.0,294.6897488340037,,,,280.9297762089991,
stim_set/hard-vcom=2-147.png,fall.png,cooperation,2.5,fall,left,hard,,294.69056329200976,301.1394692920003,correct,1.4150877500069328,fall,left,5.0,306.4064313340059,,,,295.7012736670004,
stim_set/easy-411.png,stand.png,cooperation,2.0,stand,right,easy,,306.40697275000275,312.399618209005,correct,0.9525282079994212,stand,right,5.0,316.8813473750052,,,,307.41826229200524,
stim_set/hard-vcom=3-7.png,fall.png,cooperation,2.75,fall,left,hard,,316.88195408400503,322.6659052920004,correct,0.7487509169877741,fall,left,5.0,327.72035291700735,,,,317.8926042090025,
stim_set/hard-14.png,fall.png,cooperation,2.5,stand,right,hard,,327.72114975001017,334.59977900001104,incorrect,1.8476788339903576,fall,left,3.0,339.9819909590005,,,,328.7317251670029,
stim_set/hard-49.png,stand.png,cooperation,3.0,stand,right,hard,,339.9825562920014,347.63929112500045,incorrect,2.611866791994544,fall,left,5.0,353.18587991700036,,,,340.99280329199973,
stim_set/hard-82.png,fall.png,cooperation,2.25,stand,right,hard,,353.1864210000058,360.8642235000008,incorrect,2.635200666001765,fall,left,3.0,366.04371704200463,,,,354.1961638750072,
stim_set/hard-492.png,stand.png,cooperation,2.25,stand,right,hard,,366.044250292005,372.4725243340072,incorrect,1.3863104589981958,fall,left,3.0,377.3716847500037,,,,367.05499641700584,
stim_set/hard-345.png,stand.png,cooperation,2.25,stand,right,hard,,377.3724845000106,383.38262862501136,correct,0.9751440840045688,stand,right,5.0,387.69960966700455,,,,378.38320787499833,
stim_set/hard-40.png,fall.png,cooperation,3.0,stand,right,hard,,387.70033975000837,393.6307587920018,incorrect,0.8878016250091605,fall,left,5.0,399.03390925000707,,,,388.71041200000036,
stim_set/easy-vcom=2-3.png,stand.png,cooperation,3.75,fall,left,easy,,399.0345539590053,405.11402304199873,incorrect,1.0374481250037206,stand,right,5.0,411.43111187500466,,,,400.04461616701167,
stim_set/hard-vcom=1-50.png,stand.png,cooperation,4.0,fall,left,hard,,411.4316297920013,417.9389977920073,correct,1.4638531249947846,fall,left,4.0,424.56209458400565,,,,412.4421617500048,
stim_set/hard-vcom=1-30.png,fall.png,cooperation,2.5,fall,left,hard,,424.56271441699937,430.6990998750116,correct,1.1018092500016792,fall,left,5.0,435.7097584170114,,,,425.5734206250053,
stim_set/hard-369.png,stand.png,cooperation,2.5,stand,right,hard,,435.71031741700426,441.7157195000037,correct,0.976439042002312,stand,right,5.0,446.9819053340034,,,,436.7209372500074,
stim_set/hard-vcom=1-3.png,stand.png,cooperation,2.25,fall,left,hard,,446.9824547919997,453.3805778750102,correct,1.3574869580043014,fall,left,5.0,459.13252050000295,,,,447.99282766701066,
stim_set/easy-vcom=4-69.png,fall.png,cooperation,4.0,fall,left,easy,,459.13308212500124,466.4247180000093,correct,2.2529321659967536,fall,left,4.0,472.79346629200165,,,,460.14318245901086,
stim_set/easy-344.png,stand.png,cooperation,2.75,stand,right,easy,,472.7939972090098,478.847197916999,correct,1.01471745899471,stand,right,5.0,484.55211837500974,,,,473.8042897920095,
stim_set/hard-564.png,fall.png,cooperation,2.25,stand,right,hard,,484.5526931670029,490.2054577920062,incorrect,0.6101256669935538,fall,left,5.0,494.779730417009,494.78006341699796,,,485.5630585840117,
stim_set/hard-vcom=3-142.png,stand.png,cooperation,4.0,fall,left,hard,514.4167288340104,514.4175408750016,522.4550142500084,incorrect,2.9896042080072216,stand,right,3.0,528.9215882499993,,,,515.4316768749994,
stim_set/hard-382.png,stand.png,cooperation,3.75,stand,right,hard,,528.9222048340016,536.7487173749978,incorrect,2.7974111660005296,fall,left,4.0,542.9669878749992,,,,529.9328597090062,
stim_set/hard-vcom=4-75.png,fall.png,cooperation,2.0,fall,left,hard,,542.9675384170114,548.8898567920113,correct,0.8846434579900233,fall,left,5.0,553.1135053750039,,,,543.9776436250104,
stim_set/hard-321.png,fall.png,cooperation,2.25,stand,right,hard,,553.1140592919983,558.9384595840094,incorrect,0.7862000830064062,fall,left,5.0,563.498042584004,,,,554.1243370419979,
stim_set/hard-vcom=2-20.png,stand.png,cooperation,2.0,fall,left,hard,,563.4987394589989,570.2801910840062,incorrect,1.7382917079958131,stand,right,3.0,574.6575415840052,,,,564.5088393339975,
stim_set/hard-vcom=4-23.png,fall.png,cooperation,3.0,fall,left,hard,,574.6581095420115,581.6154466669977,correct,1.922345583996503,fall,left,3.0,587.1607986250019,,,,575.6681247500093,
stim_set/hard-vcom=1-136.png,stand.png,cooperation,2.75,fall,left,hard,,587.1614237500036,594.3986026670027,correct,2.2017502910020994,fall,left,4.0,599.6150118750082,,,,588.17232350001,
stim_set/hard-vcom=1-95.png,fall.png,cooperation,2.5,fall,left,hard,,599.6155878749996,605.3715512089984,correct,0.7171103750006296,fall,left,3.0,610.1967112499988,,,,600.6257797090075,
stim_set/easy-vcom=1-12.png,stand.png,cooperation,2.25,fall,left,easy,,610.1972495840017,618.3049894590076,correct,3.0640179999900283,fall,left,3.0,622.9310556249984,,,,611.2075699590059,
stim_set/hard-vcom=2-137.png,stand.png,cooperation,2.25,fall,left,hard,,622.9316125000041,630.4047758340022,incorrect,2.4357122500077817,stand,right,3.0,635.0267005420027,,,,623.9420301250067,
stim_set/hard-vcom=2-16.png,fall.png,cooperation,2.25,fall,left,hard,,635.0272507089976,643.7297593340045,incorrect,3.658447833004175,stand,right,3.0,648.5626164590067,,,,636.0374960420013,
stim_set/hard-vcom=2-100.png,stand.png,cooperation,4.0,fall,left,hard,,648.5632423339994,655.6231193749992,correct,2.023039874999085,fall,left,3.0,662.2007821250007,,,,649.5743112089987,
stim_set/hard-441.png,fall.png,cooperation,2.0,stand,right,hard,,662.2013752500061,670.7647926670032,correct,3.5300782919948688,stand,right,4.0,675.1454960840057,,,,663.2117789170006,
stim_set/hard-vcom=3-82.png,fall.png,cooperation,2.5,fall,left,hard,,675.1460393340094,681.1814747090102,correct,0.9972127079963684,fall,left,5.0,686.0207659170119,,,,676.156314250009,
stim_set/hard-549.png,stand.png,cooperation,2.25,stand,right,hard,,686.0215380840091,695.1064003339998,correct,4.048337749991333,stand,right,3.0,699.6834192920069,,,,687.031975750011,
stim_set/hard-391.png,stand.png,cooperation,2.75,stand,right,hard,,699.6839265419984,705.8627235840103,incorrect,1.139599582995288,fall,left,3.0,710.9424363340078,,,,700.6941916250072,
stim_set/hard-367.png,fall.png,cooperation,3.75,stand,right,hard,,710.9430175840097,718.0811675420117,incorrect,2.1032343749975557,fall,left,3.0,724.4714359589998,,,,711.9534762090042,
stim_set/easy-vcom=4-19.png,fall.png,cooperation,2.25,fall,left,easy,,724.4719498339982,731.7544537920039,incorrect,2.2387662920082216,stand,right,4.0,736.4739284590033,,,,725.4823461250052,
stim_set/hard-vcom=4-80.png,stand.png,cooperation,4.0,fall,left,hard,,736.474474542003,743.9899582090003,correct,2.4751084589952366,fall,left,4.0,750.3532910840004,,,,737.4852253749997,
stim_set/hard-vcom=4-142.png,fall.png,cooperation,2.25,fall,left,hard,,750.3539468750096,757.6294376669975,correct,2.2360235420055687,fall,left,3.0,762.5225342920021,,,,751.3636738750066,
stim_set/hard-21.png,fall.png,cooperation,2.5,stand,right,hard,,762.5230717090018,768.8209687089984,incorrect,1.2582017920067299,fall,left,3.0,773.6686957920027,,,,763.5333962500008,
stim_set/easy-vcom=3-38.png,stand.png,cooperation,2.25,fall,left,easy,,773.6693979590054,780.5959210840082,incorrect,1.8834332909900693,stand,right,4.0,785.2978022500029,,,,774.6799463339993,
stim_set/easy-vcom=3-142.png,fall.png,cooperation,3.25,fall,left,easy,,785.298343167,793.5042403749976,correct,3.1630202079977607,fall,left,3.0,799.1134268340103,,,,786.3088083750044,
stim_set/easy-164.png,stand.png,cooperation,3.75,stand,right,easy,,799.1140398749994,805.1809892500023,correct,1.0272096669941675,stand,right,5.0,811.1095202090073,,,,800.1249520420097,
stim_set/hard-316.png,fall.png,cooperation,2.5,stand,right,hard,,811.1100872500101,817.7374629999977,incorrect,1.588865750003606,fall,left,3.0,822.5247447500004,,,,812.1203629590018,
stim_set/hard-vcom=4-92.png,stand.png,cooperation,2.25,fall,left,hard,,822.5252957089978,831.6538970420079,correct,4.084173834009563,fall,left,3.0,836.5937955000118,,,,823.5359067500102,
stim_set/hard-78.png,fall.png,cooperation,2.25,stand,right,hard,,836.5944063339994,842.8957168339984,incorrect,1.258990166999865,fall,left,4.0,847.3937183340022,,,,837.605138709012,
stim_set/easy-280.png,stand.png,cooperation,3.0,stand,right,easy,,847.394245250005,853.320731209009,correct,0.8864453750138637,stand,right,5.0,858.5763418340066,,,,848.4051807920041,
stim_set/easy-vcom=1-87.png,fall.png,cooperation,2.5,fall,left,easy,,858.5771540420102,864.9391853340057,correct,1.3235075409902493,fall,left,3.0,869.7398416670039,,,,859.5880487920076,
stim_set/easy-vcom=1-145.png,stand.png,cooperation,3.75,fall,left,easy,,869.7404457920056,876.1955033340055,correct,1.4125413750007283,fall,left,3.0,882.3494590000046,,,,870.7514575000096,
stim_set/hard-91.png,fall.png,cooperation,3.75,stand,right,hard,,882.349984667002,888.6540588750067,incorrect,1.2614044590009144,fall,left,4.0,894.653972250002,,,,883.360709917004,
stim_set/hard-182.png,stand.png,cooperation,2.75,stand,right,hard,,894.6545089590072,901.0455299590103,incorrect,1.3572278750070836,fall,left,3.0,905.8530951670108,,,,895.6654365840077,
stim_set/hard-177.png,stand.png,cooperation,2.0,stand,right,hard,,905.8536587090056,913.070487334,incorrect,2.182968458000687,fall,left,4.0,917.720024084003,,,,906.8644873340089,
stim_set/hard-132.png,fall.png,cooperation,3.0,stand,right,hard,,917.720645834008,923.5052236670017,incorrect,0.7490727919939673,fall,left,4.0,928.8558224170121,,,,918.7314795420098,
stim_set/hard-vcom=2-110.png,fall.png,cooperation,2.5,fall,left,hard,,928.8563891670057,935.0288777090027,correct,1.1339367499895159,fall,left,4.0,940.0357974590006,,,,929.8666184169997,
stim_set/hard-214.png,fall.png,cooperation,3.25,stand,right,hard,,940.0363848749984,946.1620300000067,incorrect,1.0828893750003772,fall,left,5.0,952.2577052090056,,,,941.0464229170027,
stim_set/hard-334.png,stand.png,cooperation,2.75,stand,right,hard,,952.2582365840062,959.3037315420081,incorrect,2.0066680829913817,fall,left,3.0,964.3009982090007,,,,953.2688395420117,
stim_set/hard-vcom=1-130.png,fall.png,cooperation,2.5,fall,left,hard,,964.3016675420076,972.1886372090083,correct,2.8523738749936456,fall,left,4.0,976.9388712500077,,,,965.3120109169977,
stim_set/hard-7.png,stand.png,cooperation,2.75,stand,right,hard,,976.9395070840109,983.7805382500082,incorrect,1.8007639999996172,fall,left,5.0,989.0137245420048,,,,977.9498123340018,
stim_set/hard-vcom=4-147.png,fall.png,cooperation,3.25,fall,left,hard,,989.0142663750012,995.20551325001,correct,1.15146070899209,fall,left,5.0,1001.2572805840027,1001.2576276670006,,,990.0244832090103,
stim_set/easy-vcom=4-126.png,stand.png,competition,3.0,fall,left,easy,0.00012650000280700624,0.0006977910088608041,6.258938750004745,incorrect,1.2128007499995874,stand,right,5,12.677762958002859,,,,1.0122574160050135,
stim_set/easy-280.png,stand.png,competition,3.75,stand,right,easy,,12.678417500006617,18.843869500007713,correct,1.129178041999694,stand,right,5,25.401203375004116,,,,13.690515333000803,
stim_set/hard-321.png,fall.png,competition,3.0,stand,right,hard,,25.401762125009554,31.675397791012074,incorrect,1.233930959002464,fall,left,5,37.235961041005794,,,,26.412509583009523,
stim_set/hard-vcom=2-147.png,stand.png,competition,2.0,fall,left,hard,,37.23651729100675,44.94205508301093,correct,2.671276458000648,fall,left,3,49.57113029100583,,,,38.24704779101012,
stim_set/hard-2.png,fall.png,competition,2.75,stand,right,hard,,49.5717286660074,56.47532262500317,correct,1.8625112919980893,stand,right,4,61.79428900001221,,,,50.58175670800847,
stim_set/easy-vcom=2-3.png,fall.png,competition,2.5,fall,left,easy,,61.79483541600348,68.33544237499882,incorrect,1.5036648340028478,stand,right,4,73.15041179100808,,,,62.80478408301133,
stim_set/hard-21.png,stand.png,competition,2.25,stand,right,hard,,73.15096066601109,80.20014183300373,incorrect,2.0100129170023138,fall,left,3,84.82134962501004,,,,74.16116358300496,
stim_set/easy-vcom=1-12.png,fall.png,competition,2.75,fall,left,easy,,84.82191241600958,91.03492162500334,correct,1.174767749995226,fall,left,3,96.93775558299967,,,,85.83203829100239,
stim_set/easy-vcom=2-147.png,stand.png,competition,2.5,fall,left,easy,,96.93831391600543,104.15227025000786,correct,2.1765996659960365,fall,left,3,108.76753804100736,,,,97.94897383300122,
stim_set/hard-367.png,fall.png,competition,3.0,stand,right,hard,,108.76835041600862,117.22669920801127,incorrect,3.4234942920011235,fall,left,3,122.54702974999964,,,,109.77845441600948,
stim_set/hard-vcom=4-80.png,stand.png,competition,2.5,fall,left,hard,,122.54753641600837,129.2000569160009,correct,1.6078470000065863,fall,left,5,134.16628516600758,,,,123.55870945801144,
stim_set/hard-82.png,stand.png,competition,2.25,stand,right,hard,,134.16689679100818,140.47646354101016,correct,1.2717956250126008,stand,right,5,145.0927685409988,,,,135.17749845801154,
stim_set/easy-vcom=4-19.png,fall.png,competition,2.0,fall,left,easy,,145.0933552080096,152.54987075000827,incorrect,2.4124600409995764,stand,right,4,156.81909675001225,,,,146.1039746660099,
stim_set/hard-7.png,fall.png,competition,2.0,stand,right,hard,,156.81983745800972,162.9854082910024,incorrect,1.1253827500040643,fall,left,5,167.29121700000542,,,,157.83002074999968,
stim_set/easy-vcom=3-142.png,stand.png,competition,2.5,fall,left,easy,,167.2919373330078,173.71655891599949,incorrect,1.3824468749953667,stand,right,5,178.6216610410047,,,,168.30234337500588,
stim_set/easy-vcom=3-74.png,fall.png,competition,2.25,fall,left,easy,,178.62222579101217,185.16019862500252,correct,1.4994054589915322,fall,left,5,189.72401020801044,,,,179.6323203750071,
stim_set/hard-vcom=2-16.png,stand.png,competition,2.25,fall,left,hard,,189.72475237501203,196.56878983300703,incorrect,1.803376958006993,stand,right,5,201.0280705410114,,,,190.73513641599857,
stim_set/hard-vcom=4-139.png,fall.png,competition,2.5,fall,left,hard,,201.02881187500316,207.10807479100185,correct,1.0401607920066454,fall,left,4,211.9748559580039,,,,202.0389254160109,
stim_set/hard-vcom=4-147.png,fall.png,competition,2.5,fall,left,hard,,211.9754605830094,218.21796500000346,correct,1.2027920839900617,fall,left,5,223.15065808300278,,,,212.9859955830034,
stim_set/easy-vcom=1-87.png,stand.png,competition,2.5,fall,left,easy,,223.15129300000262,230.9428956660122,incorrect,2.752073499999824,stand,right,3,235.749933375002,,,,224.162196958001,
stim_set/easy-vcom=4-69.png,fall.png,competition,3.0,fall,left,easy,,235.75047866599925,241.95779608300654,incorrect,1.1645187499962049,stand,right,4,247.30616250001185,,,,236.76039900000615,
stim_set/hard-316.png,fall.png,competition,3.75,stand,right,hard,,247.30686933299876,253.59349162501167,incorrect,1.2514048330049263,fall,left,3,259.808735041006,,,,248.31710287500755,
stim_set/easy-13.png,stand.png,competition,2.25,stand,right,easy,,259.8092872499983,265.99113383299846,correct,1.1381837499939138,stand,right,5,270.6604239580047,,,,260.8195887500042,
stim_set/hard-182.png,stand.png,competition,2.25,stand,right,hard,,270.6611177500017,277.23247004100995,incorrect,1.5380967499950202,fall,left,4,282.0444642910006,,,,271.6717251250084,
stim_set/hard-vcom=4-92.png,fall.png,competition,3.75,fall,left,hard,,282.04498033301206,287.91793962501106,correct,0.8335707920050481,fall,left,5,294.23220825000317,,,,283.05511066599865,
stim_set/hard-564.png,stand.png,competition,4.0,stand,right,hard,,294.2327653750108,300.25776195801154,incorrect,0.9822379999968689,fall,left,5,306.6496088749991,,,,295.24323979100154,
stim_set/hard-vcom=1-3.png,stand.png,competition,2.5,fall,left,hard,,306.65012720800587,313.1843930000032,correct,1.497826457998599,fall,left,5,318.2141339160007,,,,307.6608685829997,
stim_set/easy-164.png,fall.png,competition,2.5,stand,right,easy,,318.21469233300013,324.250949416004,correct,0.9971399170026416,stand,right,5,329.1581820410065,,,,319.22476166600245,
stim_set/hard-vcom=1-50.png,fall.png,competition,3.75,fall,left,hard,,329.15877900000487,335.41585587500595,correct,1.2132825419976143,fall,left,5,341.4236202910106,,,,330.16911412500485,
stim_set/hard-vcom=1-95.png,fall.png,competition,2.25,fall,left,hard,,341.42415491600696,347.58253862500715,correct,1.1191635420109378,fall,left,5,352.1873519580113,,,,342.43443708300765,
stim_set/hard-280.png,fall.png,competition,2.5,stand,right,hard,,352.1880052080087,358.7908090830024,incorrect,1.5597938330029137,fall,left,5,364.1498754159984,,,,353.1980752080126,
stim_set/hard-14.png,stand.png,competition,4.0,stand,right,hard,,364.15042745800747,371.14903770800447,correct,1.965494458010653,stand,right,4,377.5944464159984,,,,365.1606505410018,
stim_set/hard-78.png,fall.png,competition,2.5,stand,right,hard,,377.5950171250006,384.1836618330126,incorrect,1.5514412920019822,fall,left,4,388.97315366601106,,,,378.6058377500012,
stim_set/hard-91.png,fall.png,competition,2.0,stand,right,hard,,388.97375750000356,396.18452400001115,incorrect,2.1726389169925824,fall,left,4,400.58555370800605,,,,389.9842717499996,
stim_set/hard-vcom=1-30.png,stand.png,competition,2.75,fall,left,hard,,400.58614808300626,406.82541591599875,correct,1.2062422500021057,fall,left,4,412.12076850001176,,,,401.59677791599825,
stim_set/hard-vcom=2-137.png,fall.png,competition,3.0,fall,left,hard,,412.1214838330052,418.9740251250041,correct,1.8146062090090709,fall,left,4,424.2181962910108,,,,413.13199791600346,
stim_set/hard-vcom=1-130.png,fall.png,competition,3.25,fall,left,hard,,424.21877141601,431.11558974999934,incorrect,1.8580954170029145,stand,right,4,436.9081265410059,,,,425.2288171250111,
stim_set/hard-vcom=4-23.png,stand.png,competition,3.25,fall,left,hard,,436.90872145800677,444.3322701249999,correct,2.384073041990632,fall,left,3,450.10741195800074,,,,437.91926875000354,
stim_set/hard-vcom=3-34.png,stand.png,competition,2.5,fall,left,hard,,450.10795925000275,456.240529540999,correct,1.0873872920055874,fall,left,4,462.2778797909996,,,,451.1189505830116,
stim_set/hard-441.png,fall.png,competition,4.0,stand,right,hard,,462.27842658301233,468.4570339159982,correct,1.1408382079971489,stand,right,5,474.8493210410088,474.84972391600604,,,463.28859204100445,
stim_set/hard-244.png,stand.png,competition,4.0,stand,right,hard,501.5689505410119,501.56969483300054,509.0985731660039,incorrect,2.482843915990088,fall,left,4,515.4971627080085,,,,502.58202495799924,
stim_set/hard-vcom=3-7.png,stand.png,competition,2.25,fall,left,hard,,515.4977248330106,521.5338633750071,correct,1.000429207997513,fall,left,4,526.1081912910013,,,,516.508324416005,
stim_set/easy-411.png,stand.png,competition,2.25,stand,right,easy,,526.1087527909986,532.1506349580013,correct,1.0018900409922935,stand,right,5,536.8513122910081,,,,527.1195386250038,
stim_set/hard-vcom=2-20.png,fall.png,competition,3.75,fall,left,hard,,536.8518656660017,543.0313845000055,correct,1.1367757499974687,fall,left,5,549.1190932080062,,,,537.8623608750058,
stim_set/easy-vcom=2-94.png,stand.png,competition,4.0,fall,left,easy,,549.1196541250101,555.6084517499985,incorrect,1.453807957994286,stand,right,5,562.0970390000002,,,,550.1302883330063,
stim_set/hard-vcom=3-110.png,fall.png,competition,2.5,fall,left,hard,,562.0976693749981,568.2746507910051,correct,1.148148583000875,fall,left,5,573.0691001250088,,,,563.1082350830111,
stim_set/hard-vcom=1-136.png,fall.png,competition,3.25,fall,left,hard,,573.0698017079994,579.2233064580068,correct,1.1127727499988396,fall,left,5,584.802912625004,,,,574.0806200000079,
stim_set/hard-vcom=2-100.png,stand.png,competition,2.75,fall,left,hard,,584.8036486250057,591.2313255830086,correct,1.3870409590017516,fall,left,4,596.2066926660045,,,,585.8146014160011,
stim_set/easy-vcom=3-15.png,stand.png,competition,3.0,fall,left,easy,,596.207206416002,602.9917984159983,correct,1.748422083008336,fall,left,3,608.4651246660069,,,,597.2178663330124,
stim_set/easy-590.png,fall.png,competition,4.0,stand,right,easy,,608.465690958008,614.3834507499996,correct,0.87757229199633,stand,right,5,620.5044042500085,,,,609.476259166011,
stim_set/hard-600.png,stand.png,competition,2.25,stand,right,hard,,620.5049096250004,626.733414125003,incorrect,1.1987545419979142,fall,left,5,631.2993894160027,,,,621.5155537910032,
stim_set/hard-40.png,fall.png,competition,2.25,stand,right,hard,,631.2999585830112,637.5063376250037,incorrect,1.1638822500099195,fall,left,5,641.9708269580005,,,,632.3104506250093,
stim_set/easy-vcom=1-73.png,stand.png,competition,4.0,fall,left,easy,,641.9713541250094,649.6244177910121,incorrect,2.6242584170104237,stand,right,3,655.9049264159985,,,,642.9822883750021,
stim_set/hard-492.png,fall.png,competition,2.25,stand,right,hard,,655.9054855410068,662.3164636250003,incorrect,1.3745937909989152,fall,left,4,668.0521539160109,,,,656.9157260830107,
stim_set/hard-382.png,stand.png,competition,2.0,stand,right,hard,,668.0527032910031,675.0577163749986,incorrect,1.976364709000336,fall,left,4,679.4970443330094,,,,669.0630216249992,
stim_set/hard-vcom=2-110.png,fall.png,competition,2.25,fall,left,hard,,679.4976749160123,685.3228383750102,correct,0.7866691249946598,fall,left,4,689.8903652080044,,,,680.5080057500018,
stim_set/hard-334.png,stand.png,competition,3.25,stand,right,hard,,689.8909204160009,696.2145993750019,incorrect,1.2854494170023827,fall,left,5,701.772207291011,,,,690.9013307910063,
stim_set/hard-49.png,fall.png,competition,3.75,stand,right,hard,,701.772767625007,707.8496665410057,incorrect,1.0368820000003325,fall,left,4,713.8137716250058,,,,702.7829723330069,
stim_set/hard-vcom=4-142.png,fall.png,competition,2.75,fall,left,hard,,713.8143123750051,719.939550250012,correct,1.0858900419989368,fall,left,4,725.1989211250038,,,,714.8239823750046,
stim_set/hard-vcom=3-145.png,stand.png,competition,4.0,fall,left,hard,,725.1994829160103,731.8978091250028,incorrect,1.6641190420050407,stand,right,4,738.1924031660019,,,,726.2099610410078,
stim_set/hard-345.png,fall.png,competition,3.25,stand,right,hard,,738.1929501250124,744.3582898750028,correct,1.1297044999955688,stand,right,4,750.0022154580074,,,,739.2030402500095,
stim_set/hard-599.png,stand.png,competition,2.25,stand,right,hard,,750.0029607500037,756.7978236659983,incorrect,1.7613139160093851,fall,left,5,761.7546137080062,,,,751.0133079580119,
stim_set/hard-549.png,fall.png,competition,2.75,stand,right,hard,,761.7552855829999,768.8976024580043,incorrect,2.1010169999935897,fall,left,3,774.0463811660011,,,,762.7657581250096,
stim_set/hard-177.png,stand.png,competition,3.75,stand,right,hard,,774.0469400410075,780.5893342909985,incorrect,1.508561708003981,fall,left,3,786.7750730830012,,,,775.0574049580027,
stim_set/easy-vcom=1-145.png,fall.png,competition,2.5,fall,left,easy,,786.7756199160067,793.2560388749989,correct,1.4384323330014013,fall,left,4,797.9332372500066,,,,787.7859644160053,
stim_set/hard-214.png,stand.png,competition,2.0,stand,right,hard,,797.9338193750009,804.5893667500059,incorrect,1.6120344579976518,fall,left,5,809.3282360410085,,,,798.944025875011,
stim_set/easy-538.png,fall.png,competition,2.5,stand,right,easy,,809.3287760000094,815.3162496250006,correct,0.9544682080013445,stand,right,5,820.1493201250123,,,,810.3386794580001,
stim_set/hard-vcom=4-75.png,stand.png,competition,3.25,fall,left,hard,,820.1498885830079,826.0642930830072,correct,0.8705730830115499,fall,left,5,832.0268697499996,,,,821.159992166009,
stim_set/hard-vcom=3-82.png,fall.png,competition,2.25,fall,left,hard,,832.0274021660007,838.2910107080097,correct,1.2258118750032736,fall,left,4,842.9543437500106,,,,833.0374284160062,
stim_set/hard-570.png,stand.png,competition,2.0,stand,right,hard,,842.9549632910057,849.865900290999,incorrect,1.8717879589967197,fall,left,4,853.9916679580056,,,,843.965300625001,
stim_set/hard-566.png,fall.png,competition,3.75,stand,right,hard,,853.9922078750096,860.0725208750082,incorrect,1.035861209005816,fall,left,5,866.9987788750004,,,,855.0023829999991,
stim_set/hard-vcom=3-142.png,stand.png,competition,2.75,fall,left,hard,,866.9993310830032,875.0308106250013,correct,2.9871462089940906,fall,left,3,880.4062330000015,,,,868.009893541006,
stim_set/easy-vcom=3-38.png,stand.png,competition,2.5,fall,left,easy,,880.40694029101,887.2658425410045,incorrect,1.8203048750001471,stand,right,3,891.9001680830115,,,,881.4172317500052,
stim_set/easy-77.png,fall.png,competition,2.0,stand,right,easy,,891.9009152080107,897.8574260830064,correct,0.9217758330050856,stand,right,4,901.9514152500051,,,,892.911061375009,
stim_set/easy-vcom=2-20.png,fall.png,competition,3.0,fall,left,easy,,901.9519781249983,908.3160223750019,correct,1.3292405840038555,fall,left,3,915.082250833002,,,,902.9626455410034,
stim_set/hard-402.png,stand.png,competition,2.25,stand,right,hard,,915.0829781659995,920.9890790409991,incorrect,0.863359084003605,fall,left,5,926.1777483330079,,,,916.0938205830025,
stim_set/hard-369.png,fall.png,competition,3.0,stand,right,hard,,926.1782956250099,932.3574428749998,correct,1.150132875001873,stand,right,4,937.5131004160066,,,,927.1884275830089,
stim_set/easy-344.png,fall.png,competition,3.25,stand,right,easy,,937.5136667080078,943.6388139160117,correct,1.086472541996045,stand,right,5,949.0657928750006,,,,938.5238913330104,
stim_set/hard-391.png,stand.png,competition,3.25,stand,right,hard,,949.066391875007,955.1243289999984,incorrect,1.0227079169999342,fall,left,4,960.7229696249997,,,,950.0769789160113,
stim_set/hard-132.png,fall.png,competition,2.75,stand,right,hard,,960.723557958001,966.6723617500102,incorrect,0.9087103339988971,fall,left,4,972.406429583003,972.4067654160026,,,961.7340012500063,
stim_set/hard-410.png,stand.png,cooperation,3.75,stand,right,hard,2.5000044843181968e-06,0.0023225000040838486,7.2389780829980745,correct,2.2189505830028797,stand,right,5.0,14.225560624996431,14.226072749996092,,,1.0151916250033537,
stim_set/hard-188.png,stand.png,competition,4.0,stand,right,hard,3.249995643272996e-06,0.002223208997747861,7.972246917008306,incorrect,2.956226333990344,fall,left,4,15.331757624997408,15.332293833998847,,,1.0157353749964386,
