towers,bet,condition,iti,corr_choice,corr_key,difficulty,block_start,trial_start,stim_on,acc,rt,part_choice,part_key,confidence,trial_end,block_end,updated_score,condition_first,cue_on
stim_set/hard-600.png,none.png,unmotivated,2.5,stand,right,hard,3.3329997677356005e-06,0.002852917008567601,1.1766255420079688,incorrect,1.1286175419954816,fall,left,5.0,9.098746292002033,,215.0,cooperation,
stim_set/hard-vcom=4-147.png,none.png,unmotivated,2.25,fall,left,hard,,9.100172833001123,11.115898375006509,correct,1.959045208001044,fall,left,3.0,16.7893795830023,,435.0,,
stim_set/easy-vcom=1-12.png,none.png,unmotivated,2.0,fall,left,easy,,16.789926416997332,19.632586667008578,correct,2.786650832989835,fall,left,3.0,24.21095629200863,,,,
stim_set/hard-492.png,none.png,unmotivated,2.0,stand,right,hard,,24.211502292004297,25.799209667005925,correct,1.533574500004761,stand,right,4.0,31.08447654200427,,,,
stim_set/hard-vcom=2-137.png,none.png,unmotivated,3.0,fall,left,hard,,31.085038999997774,34.34921533300076,correct,3.2138305410044268,fall,left,2.0,40.298552457999904,,,,
stim_set/easy-vcom=2-147.png,none.png,unmotivated,3.25,fall,left,easy,,40.299158833004185,43.376405000002705,correct,3.0266984169866187,fall,left,2.0,49.90148133299954,,,,
stim_set/easy-vcom=1-73.png,none.png,unmotivated,2.5,fall,left,easy,,49.90214120800374,54.74273387499852,incorrect,4.798684624998714,stand,right,2.0,59.87898312500329,,,,
stim_set/easy-344.png,none.png,unmotivated,4.0,stand,right,easy,,59.87957062500936,61.04074599999876,correct,1.1094986249954673,stand,right,5.0,68.63546791700355,,,,
stim_set/easy-vcom=4-126.png,none.png,unmotivated,2.5,fall,left,easy,,68.63602375000481,69.70737899999949,incorrect,1.014738625002792,stand,right,5.0,74.77505987499899,,,,
stim_set/hard-vcom=2-147.png,none.png,unmotivated,2.5,fall,left,hard,,74.77564175000589,76.83210733300075,correct,2.010786375001772,fall,left,3.0,82.36702904199774,,,,
stim_set/hard-132.png,none.png,unmotivated,3.75,stand,right,hard,,82.36759012499533,83.89214558299864,incorrect,1.4771433749992866,fall,left,5.0,89.76878391699573,,,,
stim_set/hard-vcom=3-7.png,none.png,unmotivated,2.75,fall,left,hard,,89.76959437500045,91.13211954200231,correct,1.3105784579965984,fall,left,5.0,96.31283408300078,,,,
stim_set/hard-391.png,none.png,unmotivated,2.25,stand,right,hard,,96.31342025000777,97.5338144999987,incorrect,1.1730765829997836,fall,left,5.0,102.25226995800041,,,,
stim_set/hard-402.png,none.png,unmotivated,2.5,stand,right,hard,,102.25281391700264,103.69047204199889,incorrect,1.3826504589960678,fall,left,5.0,108.79783566700644,,,,
stim_set/easy-13.png,none.png,unmotivated,2.5,stand,right,easy,,108.79839454199828,109.84025245800149,correct,0.9846974999964004,stand,right,5.0,114.74192858299648,,,,
stim_set/hard-367.png,none.png,unmotivated,2.5,stand,right,hard,,114.74247562499659,116.85722879199602,incorrect,2.0617125000135275,fall,left,2.0,121.99787029200523,,,,
stim_set/easy-vcom=2-20.png,none.png,unmotivated,2.25,fall,left,easy,,121.99841949999971,123.60689774999628,correct,1.556889500003308,fall,left,3.0,128.499905167002,,,,
stim_set/hard-316.png,none.png,unmotivated,2.0,stand,right,hard,,128.500460167008,133.56536162500558,incorrect,,,,,137.94596295800878,,,,
stim_set/hard-82.png,none.png,unmotivated,3.75,stand,right,hard,,137.94664037499751,139.4402859999973,correct,1.4383964160078904,stand,right,4.0,146.02455945800466,,,,
stim_set/hard-564.png,none.png,unmotivated,3.75,stand,right,hard,,146.025046499999,147.21523562500082,incorrect,1.1353443749976575,fall,left,5.0,153.46473375000642,,,,
stim_set/hard-vcom=3-142.png,none.png,unmotivated,3.25,fall,left,hard,,153.46525208299863,155.23177045800546,incorrect,1.709863124997355,stand,right,4.0,160.9247913330037,,,,
stim_set/hard-566.png,none.png,unmotivated,3.75,stand,right,hard,,160.92536241700873,161.95100858299705,incorrect,0.9728603340045084,fall,left,5.0,167.9924841250031,,,,
stim_set/hard-280.png,none.png,unmotivated,2.25,stand,right,hard,,167.99309054200418,170.75034629199945,correct,2.7058316249895142,stand,right,4.0,175.42047095800808,,,,
stim_set/hard-vcom=3-145.png,none.png,unmotivated,2.75,fall,left,hard,,175.4210180000082,177.59209679199554,correct,2.129143791011302,fall,left,3.0,182.64832700000258,,,,
stim_set/easy-vcom=2-94.png,none.png,unmotivated,2.75,fall,left,easy,,182.64888654199603,183.6397851250076,incorrect,0.93916129200079,stand,right,5.0,188.9041940000025,,,,
stim_set/hard-vcom=4-80.png,none.png,unmotivated,3.75,fall,left,hard,,188.90473004200612,190.3482317080052,correct,1.3866212089924377,fall,left,5.0,196.57612970800255,,,,
stim_set/hard-599.png,none.png,unmotivated,3.0,stand,right,hard,,196.57668762499816,197.55673837500217,correct,0.9343064999993658,stand,right,5.0,202.946500792008,,,,
stim_set/hard-182.png,none.png,unmotivated,4.0,stand,right,hard,,202.94706337500247,204.03170304199742,incorrect,1.0384444579976844,fall,left,5.0,210.45790779200613,,,,
stim_set/hard-570.png,none.png,unmotivated,2.25,stand,right,hard,,210.45873795800438,212.14840058299887,incorrect,1.6332112910022258,fall,left,5.0,216.76459770799562,,,,
stim_set/easy-vcom=4-69.png,none.png,unmotivated,2.25,fall,left,easy,,216.76513716700717,217.85662449999654,incorrect,1.0353915000014242,stand,right,4.0,222.57971116699628,,,,
stim_set/easy-280.png,none.png,unmotivated,3.0,stand,right,easy,,222.58026366699775,223.51491966699538,correct,0.8825296670111129,stand,right,5.0,228.84916329200496,,,,
stim_set/hard-2.png,none.png,unmotivated,2.75,stand,right,hard,,228.84971595800013,230.7149411669961,correct,1.810839792000479,stand,right,3.0,235.8471784580033,,,,
stim_set/hard-vcom=2-100.png,none.png,unmotivated,3.25,fall,left,hard,,235.84774974999888,237.014746832996,correct,1.1140021669998532,fall,left,5.0,242.90042758300842,,,,
stim_set/hard-177.png,none.png,unmotivated,2.0,stand,right,hard,,242.90092183300288,244.03144358300773,incorrect,1.0840021670010174,fall,left,4.0,248.58496433300027,,,,
stim_set/hard-244.png,none.png,unmotivated,3.25,stand,right,hard,,248.58551754200016,249.65658612499828,incorrect,1.0140507089963648,fall,left,4.0,255.2431597499963,,,,
stim_set/easy-538.png,none.png,unmotivated,2.5,stand,right,easy,,255.24370283300232,256.0814615420095,correct,0.7876799160003429,stand,right,5.0,260.9253630000021,,,,
stim_set/easy-vcom=3-15.png,none.png,unmotivated,2.25,fall,left,easy,,260.9259291250055,262.35011862500687,correct,1.376128499992774,fall,left,3.0,267.19711979200656,,,,
stim_set/easy-vcom=1-145.png,none.png,unmotivated,3.75,fall,left,easy,,267.1979319170059,268.5246625830041,correct,1.2770192909956677,fall,left,5.0,274.69527925000875,,,,
stim_set/hard-vcom=4-92.png,none.png,unmotivated,2.75,fall,left,hard,,274.6959277499991,276.23993341700407,correct,1.487399165998795,fall,left,5.0,281.7924655420065,,,,
stim_set/easy-vcom=1-87.png,none.png,unmotivated,3.0,fall,left,easy,,281.79302758300037,283.156424832996,incorrect,1.3080484170059208,stand,right,5.0,289.0095838749985,289.0099120420054,,,
stim_set/easy-vcom=3-142.png,none.png,unmotivated,2.75,fall,left,easy,303.1372921250004,303.13798425000283,304.131424332998,incorrect,0.9371669999964071,stand,right,5.0,309.3432419580058,,,,
stim_set/easy-590.png,none.png,unmotivated,2.5,stand,right,easy,,309.34376808299567,310.3146571249963,correct,0.9137336669955404,stand,right,5.0,315.991505375001,,,,
stim_set/hard-78.png,none.png,unmotivated,2.25,stand,right,hard,,315.99209100000735,316.9663005420007,incorrect,0.9246713749889749,fall,left,5.0,321.843440208002,,,,
stim_set/hard-214.png,none.png,unmotivated,3.25,stand,right,hard,,321.8439645830076,322.71466195800167,incorrect,0.8141641249967506,fall,left,4.0,329.33232391699863,,,,
stim_set/hard-49.png,none.png,unmotivated,2.25,stand,right,hard,,329.3329964580044,331.5977420420095,incorrect,2.207083500004956,fall,left,4.0,336.45080429200607,,,,
stim_set/hard-441.png,none.png,unmotivated,2.5,stand,right,hard,,336.45136624999583,337.31445033299684,correct,0.8130119580018801,stand,right,5.0,342.2930075830081,,,,
stim_set/hard-369.png,none.png,unmotivated,2.0,stand,right,hard,,342.29355208300694,343.47269462500117,correct,1.1325739999883808,stand,right,5.0,347.8733857500047,,,,
stim_set/hard-345.png,none.png,unmotivated,2.5,stand,right,hard,,347.8739574170031,348.7643621669995,correct,0.8382746249990305,stand,right,5.0,353.8289936250076,,,,
stim_set/easy-vcom=3-38.png,none.png,unmotivated,2.5,fall,left,easy,,353.82954179200175,355.65766029199585,incorrect,1.7766838340030515,stand,right,4.0,360.93285462500353,,,,
stim_set/hard-vcom=2-16.png,none.png,unmotivated,2.5,fall,left,hard,,360.9334911670012,362.89767624999513,incorrect,1.9068181670008928,stand,right,5.0,367.91713858299767,,,,
stim_set/easy-vcom=3-74.png,none.png,unmotivated,2.25,fall,left,easy,,367.91768258300726,369.11564099999674,correct,1.1474612500023795,fall,left,3.0,374.09113762500056,,,,
stim_set/easy-vcom=2-3.png,none.png,unmotivated,4.0,fall,left,easy,,374.09173879200523,375.0406596249959,incorrect,0.8994515829981538,stand,right,5.0,381.40166612500616,,,,
stim_set/hard-vcom=4-75.png,none.png,unmotivated,2.5,fall,left,hard,,381.40224762499565,382.42260354199965,correct,0.964449416991556,fall,left,5.0,387.37419229200174,,,,
stim_set/hard-vcom=3-34.png,none.png,unmotivated,2.0,fall,left,hard,,387.3747293330089,388.54947066699964,correct,1.1218967089953369,fall,left,5.0,392.8891133750003,,,,
stim_set/easy-164.png,none.png,unmotivated,4.0,stand,right,easy,,392.88979291700525,393.75588312500616,correct,0.8094903750024969,stand,right,5.0,400.3522542499995,,,,
stim_set/hard-382.png,none.png,unmotivated,2.75,stand,right,hard,,400.35282025000197,401.36629566700134,incorrect,0.9723975829983827,fall,left,3.0,406.62330025000847,,,,
stim_set/hard-vcom=1-130.png,none.png,unmotivated,2.25,fall,left,hard,,406.62386812499614,407.97431229200447,incorrect,1.3033908329962287,stand,right,3.0,412.5941902080085,,,,
stim_set/easy-411.png,none.png,unmotivated,4.0,stand,right,easy,,412.5947583750094,413.4637483330007,correct,0.8127341670042371,stand,right,5.0,419.9683108750032,,,,
stim_set/hard-40.png,none.png,unmotivated,3.0,stand,right,hard,,419.96892162499717,421.39086445800797,incorrect,1.3715791249996985,fall,left,3.0,427.0329144580028,,,,
stim_set/hard-vcom=4-139.png,none.png,unmotivated,4.0,fall,left,hard,,427.0334820419957,429.2724077080056,correct,2.1866506660007867,fall,left,4.0,436.02512458300043,,,,
stim_set/hard-vcom=1-30.png,none.png,unmotivated,3.75,fall,left,hard,,436.02567079200526,437.0889698749961,correct,1.0133188750041882,fall,left,5.0,443.3666028750012,,,,
stim_set/hard-vcom=3-82.png,none.png,unmotivated,2.25,fall,left,hard,,443.36714083299734,445.3806931669968,correct,1.9589371250040133,fall,left,5.0,450.2427685000001,,,,
stim_set/hard-321.png,none.png,unmotivated,2.25,stand,right,hard,,450.2434138329991,451.1657229170087,incorrect,0.875441292009782,fall,left,5.0,455.91408620800934,,,,
stim_set/hard-vcom=2-20.png,none.png,unmotivated,2.25,fall,left,hard,,455.9147079170071,456.96579558300436,correct,0.99981295800535,fall,left,4.0,461.57858445800963,,,,
stim_set/hard-vcom=1-95.png,none.png,unmotivated,2.0,fall,left,hard,,461.57939595800417,462.4389588330087,correct,0.8076577089959756,fall,left,5.0,467.17697166699514,,,,
stim_set/hard-vcom=4-23.png,none.png,unmotivated,2.5,fall,left,hard,,467.1776715830056,468.49904454199714,incorrect,1.273846041993238,stand,right,4.0,473.43702358299925,,,,
stim_set/hard-334.png,none.png,unmotivated,2.0,stand,right,hard,,473.4375763330026,475.0224116250029,incorrect,1.5340360410045832,fall,left,3.0,479.6325052500033,,,,
stim_set/hard-14.png,none.png,unmotivated,3.25,stand,right,hard,,479.6331581249978,481.2486084580014,correct,1.5746121670090358,stand,right,4.0,486.9067058329965,,,,
stim_set/hard-vcom=1-136.png,none.png,unmotivated,2.5,fall,left,hard,,486.9072384580068,487.89713508299616,correct,0.9380534169904422,fall,left,4.0,493.59833912500466,,,,
stim_set/hard-vcom=3-110.png,none.png,unmotivated,3.0,fall,left,hard,,493.5988768749957,494.7054685000039,correct,1.0606015829980606,fall,left,5.0,500.14505350000394,,,,
stim_set/hard-549.png,none.png,unmotivated,3.25,stand,right,hard,,500.1455960000021,501.8136911670008,incorrect,1.614520209011971,fall,left,4.0,508.2910072079976,,,,
stim_set/hard-vcom=1-3.png,none.png,unmotivated,2.75,fall,left,hard,,508.29157625000516,509.415327249997,correct,1.0753346249985043,fall,left,4.0,514.694216792006,,,,
stim_set/hard-vcom=2-110.png,none.png,unmotivated,3.0,fall,left,hard,,514.6947781670024,515.7903633329988,correct,1.0492763749934966,fall,left,5.0,522.1071137499966,,,,
stim_set/hard-7.png,none.png,unmotivated,2.25,stand,right,hard,,522.1077907919971,523.0719171670062,incorrect,0.9066894999996292,fall,left,5.0,528.2185796670092,,,,
stim_set/hard-21.png,none.png,unmotivated,4.0,stand,right,hard,,528.2191427079962,529.1551845829963,incorrect,0.8839812090009218,fall,left,4.0,535.6480044580094,,,,
stim_set/hard-vcom=4-142.png,none.png,unmotivated,4.0,fall,left,hard,,535.6486202500091,537.2387400000007,incorrect,1.537485041000764,stand,right,4.0,543.8409572079981,,,,
stim_set/hard-91.png,none.png,unmotivated,2.25,stand,right,hard,,543.8414710420038,544.8551723749988,incorrect,0.9596065420046216,fall,left,5.0,550.2759409169959,,,,
stim_set/easy-77.png,none.png,unmotivated,3.0,stand,right,easy,,550.2764798330027,551.2382413330051,correct,0.9111501669976859,stand,right,5.0,558.1537934579974,,,,
stim_set/easy-vcom=4-19.png,none.png,unmotivated,3.25,fall,left,easy,,558.1542795830028,559.246676833005,incorrect,1.0359733329969458,stand,right,5.0,565.0580991669996,,,,
stim_set/hard-vcom=1-50.png,none.png,unmotivated,3.75,fall,left,hard,,565.0586857500019,566.696682875001,correct,1.581610458000796,fall,left,4.0,572.8460349170055,572.8464454170025,,,
stim_set/easy-vcom=2-20.png,stand.png,cooperation,4.0,fall,left,easy,0.0001557500072522089,0.0007805000059306622,9.059185459002038,correct,4.022300333002931,fall,left,4,16.565093167009763,,,,1.0124282090109773
stim_set/hard-570.png,stand.png,cooperation,2.0,stand,right,hard,,16.565703416999895,24.149034084010054,incorrect,2.5385151250084164,fall,left,4,29.115764667003532,,,,17.57649287499953
stim_set/hard-vcom=3-110.png,stand.png,cooperation,2.0,fall,left,hard,,29.116515542002162,36.77594366700214,correct,2.629714957991382,fall,left,4,41.435678250010824,,,,30.1270866249979
stim_set/hard-600.png,fall.png,cooperation,3.0,stand,right,hard,,41.43622141701053,47.99226633401122,incorrect,1.5258500829950208,fall,left,5,53.87584212500951,,,,42.447073709001415
stim_set/hard-244.png,stand.png,cooperation,2.5,stand,right,hard,,53.87641008400533,61.29215583400219,correct,2.3764297500019893,stand,right,4,67.30438254200271,,,,54.88678837500629
stim_set/easy-vcom=1-73.png,stand.png,cooperation,2.5,fall,left,easy,,67.30500020900217,75.12377604200447,incorrect,2.783678500010865,stand,right,3,80.84680079200189,,,,68.31600858400634
stim_set/easy-vcom=3-15.png,fall.png,cooperation,3.0,fall,left,easy,,80.8475416250003,87.45899816699966,correct,1.5759872080088826,fall,left,5,93.07535450000432,,,,81.85769175000314
stim_set/hard-vcom=3-145.png,stand.png,cooperation,3.75,fall,left,hard,,93.075891667002,102.08335654200346,incorrect,3.9786369590001414,stand,right,5,108.28975375001028,,,,94.08654833400215
stim_set/easy-vcom=3-74.png,fall.png,cooperation,2.25,fall,left,easy,,108.29039745900081,115.00925533400732,correct,1.6791274999995949,fall,left,5,120.18114225000318,,,,109.30145412500133
stim_set/easy-77.png,fall.png,cooperation,2.5,stand,right,easy,,120.18171808400075,126.96524874999886,correct,1.7435723329981556,stand,right,5,132.31033687500167,,,,121.19196158400155
stim_set/easy-538.png,stand.png,cooperation,2.5,stand,right,easy,,132.3109365840064,138.33177504201012,correct,0.9819530000095256,stand,right,5,143.2062235839985,,,,133.32146695900883
stim_set/hard-vcom=3-34.png,fall.png,cooperation,3.25,fall,left,hard,,143.20677262500976,149.56502733399975,correct,1.3133419999940088,fall,left,5,155.3169257499976,,,,144.21723283400934
stim_set/hard-vcom=4-139.png,stand.png,cooperation,2.75,fall,left,hard,,155.31747700000415,163.9900005840027,correct,3.6330486250080867,fall,left,4,169.2654978339997,,,,156.32809412499773
stim_set/easy-13.png,fall.png,cooperation,3.25,stand,right,easy,,169.2660736250109,175.74824870900193,correct,1.4382681669958401,stand,right,5,181.31733770899882,,,,170.27631600000313
stim_set/hard-280.png,stand.png,cooperation,3.25,stand,right,hard,,181.3178818340093,189.39152904201183,correct,3.0346711250022054,stand,right,5,195.17977179199806,,,,182.32834395900136
stim_set/hard-599.png,fall.png,cooperation,2.0,stand,right,hard,,195.1805033749988,202.05788966700493,incorrect,1.8483508749923203,fall,left,4,207.19531762500992,,,,196.191328084009
stim_set/hard-402.png,fall.png,cooperation,3.75,stand,right,hard,,207.19588470899907,213.15845045899914,incorrect,0.923913459002506,fall,left,5,219.30406920899986,,,,208.20659816700208
stim_set/easy-vcom=2-147.png,fall.png,cooperation,3.0,fall,left,easy,,219.3046461250051,225.40645504200074,correct,1.060168625001097,fall,left,5,231.00211245899845,,,,220.3151375840098
stim_set/hard-2.png,stand.png,cooperation,3.25,stand,right,hard,,231.0027626670053,237.64154287500423,correct,1.600775041995803,stand,right,4,243.70896879200882,,,,232.0139343339979
stim_set/hard-566.png,fall.png,cooperation,3.25,stand,right,hard,,243.70951454200258,249.6897726669995,incorrect,0.9362616669968702,fall,left,5,256.1660743340035,,,,244.7193202089984
stim_set/easy-590.png,fall.png,cooperation,4.0,stand,right,easy,,256.16667975000746,262.44798887500656,correct,1.2365923749894137,stand,right,5,268.94603750000533,,,,257.1771211669984
stim_set/easy-vcom=4-126.png,stand.png,cooperation,2.5,fall,left,easy,,268.9466510839993,274.9980743750057,incorrect,1.0068312500079628,stand,right,5,279.91873925000255,,,,269.95720783399884
stim_set/easy-vcom=2-94.png,stand.png,cooperation,4.0,fall,left,easy,,279.919271250008,287.60837483400246,incorrect,2.653699292000965,stand,right,3,294.6897488340037,,,,280.9297762089991
stim_set/hard-vcom=2-147.png,fall.png,cooperation,2.5,fall,left,hard,,294.69056329200976,301.1394692920003,correct,1.4150877500069328,fall,left,5,306.4064313340059,,,,295.70127366700035
stim_set/easy-411.png,stand.png,cooperation,2.0,stand,right,easy,,306.40697275000275,312.399618209005,correct,0.9525282079994213,stand,right,5,316.88134737500513,,,,307.41826229200524
stim_set/hard-vcom=3-7.png,fall.png,cooperation,2.75,fall,left,hard,,316.881954084005,322.6659052920004,correct,0.748750916987774,fall,left,5,327.7203529170074,,,,317.89260420900246
stim_set/hard-14.png,fall.png,cooperation,2.5,stand,right,hard,,327.7211497500102,334.59977900001104,incorrect,1.8476788339903578,fall,left,3,339.98199095900054,,,,328.7317251670029
stim_set/hard-49.png,stand.png,cooperation,3.0,stand,right,hard,,339.9825562920014,347.63929112500045,incorrect,2.6118667919945437,fall,left,5,353.1858799170004,,,,340.99280329199973
stim_set/hard-82.png,fall.png,cooperation,2.25,stand,right,hard,,353.1864210000058,360.86422350000066,incorrect,2.635200666001765,fall,left,3,366.0437170420046,,,,354.1961638750072
stim_set/hard-492.png,stand.png,cooperation,2.25,stand,right,hard,,366.044250292005,372.4725243340072,incorrect,1.3863104589981958,fall,left,3,377.3716847500036,,,,367.0549964170059
stim_set/hard-345.png,stand.png,cooperation,2.25,stand,right,hard,,377.3724845000106,383.3826286250114,correct,0.9751440840045689,stand,right,5,387.69960966700455,,,,378.38320787499833
stim_set/hard-40.png,fall.png,cooperation,3.0,stand,right,hard,,387.7003397500084,393.63075879200187,incorrect,0.8878016250091605,fall,left,5,399.0339092500071,,,,388.71041200000036
stim_set/easy-vcom=2-3.png,stand.png,cooperation,3.75,fall,left,easy,,399.0345539590053,405.11402304199873,incorrect,1.0374481250037206,stand,right,5,411.4311118750047,,,,400.04461616701155
stim_set/hard-vcom=1-50.png,stand.png,cooperation,4.0,fall,left,hard,,411.43162979200133,417.9389977920073,correct,1.4638531249947846,fall,left,4,424.56209458400554,,,,412.44216175000474
stim_set/hard-vcom=1-30.png,fall.png,cooperation,2.5,fall,left,hard,,424.56271441699937,430.6990998750116,correct,1.1018092500016792,fall,left,5,435.70975841701147,,,,425.5734206250054
stim_set/hard-369.png,stand.png,cooperation,2.5,stand,right,hard,,435.71031741700426,441.7157195000036,correct,0.9764390420023119,stand,right,5,446.9819053340034,,,,436.7209372500074
stim_set/hard-vcom=1-3.png,stand.png,cooperation,2.25,fall,left,hard,,446.98245479199977,453.3805778750102,correct,1.3574869580043014,fall,left,5,459.132520500003,,,,447.9928276670107
stim_set/easy-vcom=4-69.png,fall.png,cooperation,4.0,fall,left,easy,,459.13308212500124,466.4247180000093,correct,2.2529321659967536,fall,left,4,472.79346629200154,,,,460.14318245901086
stim_set/easy-344.png,stand.png,cooperation,2.75,stand,right,easy,,472.79399720900983,478.847197916999,correct,1.0147174589947099,stand,right,5,484.55211837500974,,,,473.8042897920095
stim_set/hard-564.png,fall.png,cooperation,2.25,stand,right,hard,,484.5526931670029,490.2054577920062,incorrect,0.6101256669935538,fall,left,5,494.779730417009,494.780063416998,,,485.56305858401174
stim_set/hard-vcom=3-142.png,stand.png,cooperation,4.0,fall,left,hard,514.4167288340104,514.4175408750016,522.4550142500084,incorrect,2.989604208007222,stand,right,3,528.9215882499993,,,,515.4316768749995
stim_set/hard-382.png,stand.png,cooperation,3.75,stand,right,hard,,528.9222048340016,536.7487173749978,incorrect,2.797411166000529,fall,left,4,542.9669878749992,,,,529.9328597090062
stim_set/hard-vcom=4-75.png,fall.png,cooperation,2.0,fall,left,hard,,542.9675384170114,548.8898567920114,correct,0.8846434579900233,fall,left,5,553.113505375004,,,,543.9776436250104
stim_set/hard-321.png,fall.png,cooperation,2.25,stand,right,hard,,553.1140592919983,558.9384595840093,incorrect,0.7862000830064062,fall,left,5,563.498042584004,,,,554.1243370419979
stim_set/hard-vcom=2-20.png,stand.png,cooperation,2.0,fall,left,hard,,563.4987394589989,570.2801910840062,incorrect,1.7382917079958133,stand,right,3,574.6575415840052,,,,564.5088393339975
stim_set/hard-vcom=4-23.png,fall.png,cooperation,3.0,fall,left,hard,,574.6581095420115,581.6154466669977,correct,1.9223455839965027,fall,left,3,587.1607986250019,,,,575.6681247500092
stim_set/hard-vcom=1-136.png,stand.png,cooperation,2.75,fall,left,hard,,587.1614237500035,594.3986026670027,correct,2.2017502910020994,fall,left,4,599.6150118750083,,,,588.17232350001
stim_set/hard-vcom=1-95.png,fall.png,cooperation,2.5,fall,left,hard,,599.6155878749996,605.3715512089984,correct,0.7171103750006296,fall,left,3,610.1967112499988,,,,600.6257797090075
stim_set/easy-vcom=1-12.png,stand.png,cooperation,2.25,fall,left,easy,,610.1972495840018,618.3049894590076,correct,3.0640179999900283,fall,left,3,622.9310556249984,,,,611.2075699590059
stim_set/hard-vcom=2-137.png,stand.png,cooperation,2.25,fall,left,hard,,622.9316125000041,630.4047758340021,incorrect,2.435712250007782,stand,right,3,635.0267005420028,,,,623.9420301250066
stim_set/hard-vcom=2-16.png,fall.png,cooperation,2.25,fall,left,hard,,635.0272507089976,643.7297593340045,incorrect,3.6584478330041748,stand,right,3,648.5626164590067,,,,636.0374960420013
stim_set/hard-vcom=2-100.png,stand.png,cooperation,4.0,fall,left,hard,,648.5632423339994,655.6231193749991,correct,2.0230398749990854,fall,left,3,662.2007821250008,,,,649.5743112089986
stim_set/hard-441.png,fall.png,cooperation,2.0,stand,right,hard,,662.2013752500061,670.7647926670033,correct,3.5300782919948688,stand,right,4,675.1454960840056,,,,663.2117789170006
stim_set/hard-vcom=3-82.png,fall.png,cooperation,2.5,fall,left,hard,,675.1460393340094,681.1814747090102,correct,0.9972127079963684,fall,left,5,686.0207659170119,,,,676.156314250009
stim_set/hard-549.png,stand.png,cooperation,2.25,stand,right,hard,,686.0215380840091,695.1064003339998,correct,4.048337749991333,stand,right,3,699.6834192920069,,,,687.031975750011
stim_set/hard-391.png,stand.png,cooperation,2.75,stand,right,hard,,699.6839265419985,705.8627235840104,incorrect,1.139599582995288,fall,left,3,710.9424363340077,,,,700.6941916250071
stim_set/hard-367.png,fall.png,cooperation,3.75,stand,right,hard,,710.9430175840098,718.0811675420118,incorrect,2.1032343749975553,fall,left,3,724.4714359589998,,,,711.9534762090043
stim_set/easy-vcom=4-19.png,fall.png,cooperation,2.25,fall,left,easy,,724.4719498339982,731.7544537920039,incorrect,2.238766292008222,stand,right,4,736.4739284590032,,,,725.4823461250053
stim_set/hard-vcom=4-80.png,stand.png,cooperation,4.0,fall,left,hard,,736.474474542003,743.9899582090002,correct,2.475108458995237,fall,left,4,750.3532910840004,,,,737.4852253749996
stim_set/hard-vcom=4-142.png,fall.png,cooperation,2.25,fall,left,hard,,750.3539468750096,757.6294376669975,correct,2.2360235420055687,fall,left,3,762.5225342920021,,,,751.3636738750065
stim_set/hard-21.png,fall.png,cooperation,2.5,stand,right,hard,,762.5230717090017,768.8209687089984,incorrect,1.25820179200673,fall,left,3,773.6686957920028,,,,763.5333962500008
stim_set/easy-vcom=3-38.png,stand.png,cooperation,2.25,fall,left,easy,,773.6693979590054,780.5959210840083,incorrect,1.8834332909900695,stand,right,4,785.2978022500029,,,,774.6799463339994
stim_set/easy-vcom=3-142.png,fall.png,cooperation,3.25,fall,left,easy,,785.298343167,793.5042403749976,correct,3.1630202079977607,fall,left,3,799.1134268340102,,,,786.3088083750044
stim_set/easy-164.png,stand.png,cooperation,3.75,stand,right,easy,,799.1140398749994,805.1809892500023,correct,1.0272096669941675,stand,right,5,811.1095202090073,,,,800.1249520420097
stim_set/hard-316.png,fall.png,cooperation,2.5,stand,right,hard,,811.1100872500101,817.7374629999977,incorrect,1.588865750003606,fall,left,3,822.5247447500005,,,,812.1203629590018
stim_set/hard-vcom=4-92.png,stand.png,cooperation,2.25,fall,left,hard,,822.5252957089979,831.6538970420079,correct,4.084173834009562,fall,left,3,836.5937955000118,,,,823.5359067500103
stim_set/hard-78.png,fall.png,cooperation,2.25,stand,right,hard,,836.5944063339994,842.8957168339984,incorrect,1.2589901669998653,fall,left,4,847.3937183340022,,,,837.605138709012
stim_set/easy-280.png,stand.png,cooperation,3.0,stand,right,easy,,847.394245250005,853.320731209009,correct,0.8864453750138637,stand,right,5,858.5763418340066,,,,848.4051807920041
stim_set/easy-vcom=1-87.png,fall.png,cooperation,2.5,fall,left,easy,,858.5771540420101,864.9391853340057,correct,1.3235075409902493,fall,left,3,869.7398416670039,,,,859.5880487920076
stim_set/easy-vcom=1-145.png,stand.png,cooperation,3.75,fall,left,easy,,869.7404457920056,876.1955033340055,correct,1.4125413750007283,fall,left,3,882.3494590000046,,,,870.7514575000096
stim_set/hard-91.png,fall.png,cooperation,3.75,stand,right,hard,,882.349984667002,888.6540588750067,incorrect,1.2614044590009144,fall,left,4,894.653972250002,,,,883.360709917004
stim_set/hard-182.png,stand.png,cooperation,2.75,stand,right,hard,,894.6545089590072,901.0455299590103,incorrect,1.3572278750070836,fall,left,3,905.8530951670109,,,,895.6654365840077
stim_set/hard-177.png,stand.png,cooperation,2.0,stand,right,hard,,905.8536587090057,913.0704873340001,incorrect,2.182968458000687,fall,left,4,917.720024084003,,,,906.864487334009
stim_set/hard-132.png,fall.png,cooperation,3.0,stand,right,hard,,917.7206458340079,923.5052236670017,incorrect,0.7490727919939673,fall,left,4,928.855822417012,,,,918.7314795420098
stim_set/hard-vcom=2-110.png,fall.png,cooperation,2.5,fall,left,hard,,928.8563891670055,935.0288777090027,correct,1.133936749989516,fall,left,4,940.0357974590006,,,,929.8666184169997
stim_set/hard-214.png,fall.png,cooperation,3.25,stand,right,hard,,940.0363848749985,946.1620300000068,incorrect,1.0828893750003772,fall,left,5,952.2577052090055,,,,941.0464229170029
stim_set/hard-334.png,stand.png,cooperation,2.75,stand,right,hard,,952.2582365840062,959.3037315420079,incorrect,2.006668082991382,fall,left,3,964.3009982090007,,,,953.2688395420118
stim_set/hard-vcom=1-130.png,fall.png,cooperation,2.5,fall,left,hard,,964.3016675420076,972.1886372090084,correct,2.8523738749936456,fall,left,4,976.9388712500077,,,,965.3120109169977
stim_set/hard-7.png,stand.png,cooperation,2.75,stand,right,hard,,976.939507084011,983.7805382500082,incorrect,1.8007639999996172,fall,left,5,989.0137245420046,,,,977.9498123340018
stim_set/hard-vcom=4-147.png,fall.png,cooperation,3.25,fall,left,hard,,989.0142663750012,995.20551325001,correct,1.15146070899209,fall,left,5,1001.2572805840027,1001.2576276670006,,,990.0244832090102
stim_set/easy-vcom=4-126.png,stand.png,competition,3.0,fall,left,easy,,,,,,,,,,,,,
stim_set/easy-280.png,stand.png,competition,3.75,stand,right,easy,,,,,,,,,,,,,
stim_set/hard-321.png,fall.png,competition,3.0,stand,right,hard,,,,,,,,,,,,,
stim_set/hard-vcom=2-147.png,stand.png,competition,2.0,fall,left,hard,,,,,,,,,,,,,
stim_set/hard-2.png,fall.png,competition,2.75,stand,right,hard,,,,,,,,,,,,,
stim_set/easy-vcom=2-3.png,fall.png,competition,2.5,fall,left,easy,,,,,,,,,,,,,
stim_set/hard-21.png,stand.png,competition,2.25,stand,right,hard,,,,,,,,,,,,,
stim_set/easy-vcom=1-12.png,fall.png,competition,2.75,fall,left,easy,,,,,,,,,,,,,
stim_set/easy-vcom=2-147.png,stand.png,competition,2.5,fall,left,easy,,,,,,,,,,,,,
stim_set/hard-367.png,fall.png,competition,3.0,stand,right,hard,,,,,,,,,,,,,
stim_set/hard-vcom=4-80.png,stand.png,competition,2.5,fall,left,hard,,,,,,,,,,,,,
stim_set/hard-82.png,stand.png,competition,2.25,stand,right,hard,,,,,,,,,,,,,
stim_set/easy-vcom=4-19.png,fall.png,competition,2.0,fall,left,easy,,,,,,,,,,,,,
stim_set/hard-7.png,fall.png,competition,2.0,stand,right,hard,,,,,,,,,,,,,
stim_set/easy-vcom=3-142.png,stand.png,competition,2.5,fall,left,easy,,,,,,,,,,,,,
stim_set/easy-vcom=3-74.png,fall.png,competition,2.25,fall,left,easy,,,,,,,,,,,,,
stim_set/hard-vcom=2-16.png,stand.png,competition,2.25,fall,left,hard,,,,,,,,,,,,,
stim_set/hard-vcom=4-139.png,fall.png,competition,2.5,fall,left,hard,,,,,,,,,,,,,
stim_set/hard-vcom=4-147.png,fall.png,competition,2.5,fall,left,hard,,,,,,,,,,,,,
stim_set/easy-vcom=1-87.png,stand.png,competition,2.5,fall,left,easy,,,,,,,,,,,,,
stim_set/easy-vcom=4-69.png,fall.png,competition,3.0,fall,left,easy,,,,,,,,,,,,,
stim_set/hard-316.png,fall.png,competition,3.75,stand,right,hard,,,,,,,,,,,,,
stim_set/easy-13.png,stand.png,competition,2.25,stand,right,easy,,,,,,,,,,,,,
stim_set/hard-182.png,stand.png,competition,2.25,stand,right,hard,,,,,,,,,,,,,
stim_set/hard-vcom=4-92.png,fall.png,competition,3.75,fall,left,hard,,,,,,,,,,,,,
stim_set/hard-564.png,stand.png,competition,4.0,stand,right,hard,,,,,,,,,,,,,
stim_set/hard-vcom=1-3.png,stand.png,competition,2.5,fall,left,hard,,,,,,,,,,,,,
stim_set/easy-164.png,fall.png,competition,2.5,stand,right,easy,,,,,,,,,,,,,
stim_set/hard-vcom=1-50.png,fall.png,competition,3.75,fall,left,hard,,,,,,,,,,,,,
stim_set/hard-vcom=1-95.png,fall.png,competition,2.25,fall,left,hard,,,,,,,,,,,,,
stim_set/hard-280.png,fall.png,competition,2.5,stand,right,hard,,,,,,,,,,,,,
stim_set/hard-14.png,stand.png,competition,4.0,stand,right,hard,,,,,,,,,,,,,
stim_set/hard-78.png,fall.png,competition,2.5,stand,right,hard,,,,,,,,,,,,,
stim_set/hard-91.png,fall.png,competition,2.0,stand,right,hard,,,,,,,,,,,,,
stim_set/hard-vcom=1-30.png,stand.png,competition,2.75,fall,left,hard,,,,,,,,,,,,,
stim_set/hard-vcom=2-137.png,fall.png,competition,3.0,fall,left,hard,,,,,,,,,,,,,
stim_set/hard-vcom=1-130.png,fall.png,competition,3.25,fall,left,hard,,,,,,,,,,,,,
stim_set/hard-vcom=4-23.png,stand.png,competition,3.25,fall,left,hard,,,,,,,,,,,,,
stim_set/hard-vcom=3-34.png,stand.png,competition,2.5,fall,left,hard,,,,,,,,,,,,,
stim_set/hard-441.png,fall.png,competition,4.0,stand,right,hard,,,,,,,,,,,,,
stim_set/hard-244.png,stand.png,competition,4.0,stand,right,hard,,,,,,,,,,,,,
stim_set/hard-vcom=3-7.png,stand.png,competition,2.25,fall,left,hard,,,,,,,,,,,,,
stim_set/easy-411.png,stand.png,competition,2.25,stand,right,easy,,,,,,,,,,,,,
stim_set/hard-vcom=2-20.png,fall.png,competition,3.75,fall,left,hard,,,,,,,,,,,,,
stim_set/easy-vcom=2-94.png,stand.png,competition,4.0,fall,left,easy,,,,,,,,,,,,,
stim_set/hard-vcom=3-110.png,fall.png,competition,2.5,fall,left,hard,,,,,,,,,,,,,
stim_set/hard-vcom=1-136.png,fall.png,competition,3.25,fall,left,hard,,,,,,,,,,,,,
stim_set/hard-vcom=2-100.png,stand.png,competition,2.75,fall,left,hard,,,,,,,,,,,,,
stim_set/easy-vcom=3-15.png,stand.png,competition,3.0,fall,left,easy,,,,,,,,,,,,,
stim_set/easy-590.png,fall.png,competition,4.0,stand,right,easy,,,,,,,,,,,,,
stim_set/hard-600.png,stand.png,competition,2.25,stand,right,hard,,,,,,,,,,,,,
stim_set/hard-40.png,fall.png,competition,2.25,stand,right,hard,,,,,,,,,,,,,
stim_set/easy-vcom=1-73.png,stand.png,competition,4.0,fall,left,easy,,,,,,,,,,,,,
stim_set/hard-492.png,fall.png,competition,2.25,stand,right,hard,,,,,,,,,,,,,
stim_set/hard-382.png,stand.png,competition,2.0,stand,right,hard,,,,,,,,,,,,,
stim_set/hard-vcom=2-110.png,fall.png,competition,2.25,fall,left,hard,,,,,,,,,,,,,
stim_set/hard-334.png,stand.png,competition,3.25,stand,right,hard,,,,,,,,,,,,,
stim_set/hard-49.png,fall.png,competition,3.75,stand,right,hard,,,,,,,,,,,,,
stim_set/hard-vcom=4-142.png,fall.png,competition,2.75,fall,left,hard,,,,,,,,,,,,,
stim_set/hard-vcom=3-145.png,stand.png,competition,4.0,fall,left,hard,,,,,,,,,,,,,
stim_set/hard-345.png,fall.png,competition,3.25,stand,right,hard,,,,,,,,,,,,,
stim_set/hard-599.png,stand.png,competition,2.25,stand,right,hard,,,,,,,,,,,,,
stim_set/hard-549.png,fall.png,competition,2.75,stand,right,hard,,,,,,,,,,,,,
stim_set/hard-177.png,stand.png,competition,3.75,stand,right,hard,,,,,,,,,,,,,
stim_set/easy-vcom=1-145.png,fall.png,competition,2.5,fall,left,easy,,,,,,,,,,,,,
stim_set/hard-214.png,stand.png,competition,2.0,stand,right,hard,,,,,,,,,,,,,
stim_set/easy-538.png,fall.png,competition,2.5,stand,right,easy,,,,,,,,,,,,,
stim_set/hard-vcom=4-75.png,stand.png,competition,3.25,fall,left,hard,,,,,,,,,,,,,
stim_set/hard-vcom=3-82.png,fall.png,competition,2.25,fall,left,hard,,,,,,,,,,,,,
stim_set/hard-570.png,stand.png,competition,2.0,stand,right,hard,,,,,,,,,,,,,
stim_set/hard-566.png,fall.png,competition,3.75,stand,right,hard,,,,,,,,,,,,,
stim_set/hard-vcom=3-142.png,stand.png,competition,2.75,fall,left,hard,,,,,,,,,,,,,
stim_set/easy-vcom=3-38.png,stand.png,competition,2.5,fall,left,easy,,,,,,,,,,,,,
stim_set/easy-77.png,fall.png,competition,2.0,stand,right,easy,,,,,,,,,,,,,
stim_set/easy-vcom=2-20.png,fall.png,competition,3.0,fall,left,easy,,,,,,,,,,,,,
stim_set/hard-402.png,stand.png,competition,2.25,stand,right,hard,,,,,,,,,,,,,
stim_set/hard-369.png,fall.png,competition,3.0,stand,right,hard,,,,,,,,,,,,,
stim_set/easy-344.png,fall.png,competition,3.25,stand,right,easy,,,,,,,,,,,,,
stim_set/hard-391.png,stand.png,competition,3.25,stand,right,hard,,,,,,,,,,,,,
stim_set/hard-132.png,fall.png,competition,2.75,stand,right,hard,,,,,,,,,,,,,
stim_set/hard-410.png,stand.png,cooperation,3.75,stand,right,hard,2.5000044843181968e-06,0.0023225000040838495,7.238978082998074,correct,2.2189505830028793,stand,right,5,14.225560624996433,14.226072749996092,,,1.0151916250033537
stim_set/hard-188.png,stand.png,competition,4.0,stand,right,hard,,,,,,,,,,,,,
