towers,bet,condition,iti,corr_choice,corr_key,difficulty,block_start,trial_start,stim_on,acc,rt,part_choice,part_key,confidence,trial_end,block_end,updated_score,condition_first,cue_on,condition_second
stim_set/easy-vcom=3-142.png,none.png,unmotivated,2.75,fall,left,easy,3.875000402331352e-06,0.006580500001291512,3.7388027500001035,correct,3.678293124999982,fall,left,2.0,18.685488916000395,,225.0,cooperation,,competition
stim_set/hard-vcom=4-75.png,none.png,unmotivated,2.5,fall,left,hard,,18.686791625001206,20.853418333001173,correct,2.1102657499995985,fall,left,4.0,28.84933850000016,,485.0,,,
stim_set/hard-391.png,none.png,unmotivated,2.25,stand,right,hard,,28.8499436660004,30.422288625000878,incorrect,1.5247771670001384,fall,left,4.0,35.942606000000524,,690.0,,,
stim_set/hard-564.png,none.png,unmotivated,3.75,stand,right,hard,,35.94308700000147,37.31190229100139,incorrect,1.3126463329990656,fall,left,4.0,45.16425450000133,,,,,
stim_set/hard-244.png,none.png,unmotivated,3.25,stand,right,hard,,45.16486466600146,50.2387809160009,incorrect,,,,,56.38750879100007,,,,,
stim_set/hard-334.png,none.png,unmotivated,2.0,stand,right,hard,,56.388127875001366,58.51410079100061,incorrect,2.07890583399967,fall,left,3.0,64.5568349160003,,,,,
stim_set/easy-vcom=1-87.png,none.png,unmotivated,3.0,fall,left,easy,,64.55740633300047,67.17851108300056,incorrect,2.565376208000089,stand,right,2.0,74.41509225000121,,,,,
stim_set/easy-vcom=2-20.png,none.png,unmotivated,2.25,fall,left,easy,,74.41566304099979,76.66331983300006,correct,2.20102337499884,fall,left,2.0,83.52699079100057,,,,,
stim_set/hard-599.png,none.png,unmotivated,3.0,stand,right,hard,,83.52753533299983,85.49698825000088,correct,1.928398916999868,stand,right,3.0,94.99040558300112,,,,,
stim_set/easy-vcom=1-73.png,none.png,unmotivated,2.5,fall,left,easy,,94.99112650000096,96.62021241600088,correct,1.5822687500003667,fall,left,4.0,105.92389100000037,,,,,
stim_set/easy-344.png,none.png,unmotivated,4.0,stand,right,easy,,105.9244364160004,108.12867908299995,correct,2.1530477079995762,stand,right,4.0,115.34051791599995,,,,,
stim_set/easy-538.png,none.png,unmotivated,2.5,stand,right,easy,,115.34124108300057,116.4636618330005,correct,1.0769067500004894,stand,right,5.0,122.52985325000007,,,,,
stim_set/hard-78.png,none.png,unmotivated,2.25,stand,right,hard,,122.53042825000013,123.78030150000086,incorrect,1.2004731249999168,fall,left,1.0,129.67177404100042,,,,,
stim_set/easy-280.png,none.png,unmotivated,3.0,stand,right,easy,,129.67233124999984,131.9869667910007,correct,2.262698333999652,stand,right,5.0,138.653019708001,,,,,
stim_set/easy-vcom=3-38.png,none.png,unmotivated,2.5,fall,left,easy,,138.65381120799975,141.39542320800138,correct,2.68486912499975,fall,left,4.0,147.48931104100114,,,,,
stim_set/hard-vcom=3-82.png,none.png,unmotivated,2.25,fall,left,hard,,147.49004950000014,148.80372941600038,correct,1.2584118750000926,fall,left,5.0,155.55974529100058,,,,,
stim_set/hard-vcom=4-23.png,none.png,unmotivated,2.5,fall,left,hard,,155.56029870800012,158.63037037499996,incorrect,3.022715334000168,stand,right,2.0,166.0008501250013,,,,,
stim_set/easy-vcom=4-69.png,none.png,unmotivated,2.25,fall,left,easy,,166.0013742080009,167.65557249999983,incorrect,1.6032145839999432,stand,right,4.0,173.2793935410009,,,,,
stim_set/hard-vcom=3-34.png,none.png,unmotivated,2.0,fall,left,hard,,173.27996300000092,176.30594266600013,correct,2.973550958000488,fall,left,2.0,180.94846987500026,,,,,
stim_set/hard-492.png,none.png,unmotivated,2.0,stand,right,hard,,180.94902208300118,183.937031333,incorrect,2.935242333000133,fall,left,3.0,189.39766033300108,,,,,
stim_set/hard-600.png,none.png,unmotivated,2.5,stand,right,hard,,189.39827016600063,190.97872166600064,incorrect,1.5340997080002126,fall,left,4.0,196.26378066600049,,,,,
stim_set/hard-316.png,none.png,unmotivated,2.0,stand,right,hard,,196.2643537500008,199.71422862500003,correct,3.4027604999992036,stand,right,2.0,204.5004877500014,,,,,
stim_set/hard-vcom=2-20.png,none.png,unmotivated,2.25,fall,left,hard,,204.50131970800064,207.02046950000118,correct,2.4637577089997653,fall,left,4.0,213.1591359579997,,,,,
stim_set/easy-vcom=4-126.png,none.png,unmotivated,2.5,fall,left,easy,,213.15968166600032,218.21431708300042,correct,5.002367832999879,fall,left,1.0,226.49769775000087,,,,,
stim_set/easy-77.png,none.png,unmotivated,3.0,stand,right,easy,,226.498429583,229.103959041,correct,2.5535568750001403,stand,right,4.0,237.0933046250011,,,,,
stim_set/hard-vcom=3-110.png,none.png,unmotivated,3.0,fall,left,hard,,237.09411499999987,240.33921595799984,correct,3.2032214170012594,fall,left,5.0,248.0065922499998,,,,,
stim_set/easy-vcom=2-3.png,none.png,unmotivated,4.0,fall,left,easy,,248.00714920800056,253.08031541600036,incorrect,,,,,259.77000354099977,,,,,
stim_set/hard-vcom=2-100.png,none.png,unmotivated,3.25,fall,left,hard,,259.77059729100074,262.51218129100016,correct,2.688502625000183,fall,left,4.0,269.6396560410012,,,,,
stim_set/hard-367.png,none.png,unmotivated,2.5,stand,right,hard,,269.64022537500017,271.72905120799993,incorrect,2.036398959000508,fall,left,2.0,278.43316783299997,,,,,
stim_set/easy-vcom=3-15.png,none.png,unmotivated,2.25,fall,left,easy,,278.4337612910004,281.3706247910013,correct,2.8851503750011034,fall,left,2.0,288.44926108300024,,,,,
stim_set/hard-402.png,none.png,unmotivated,2.5,stand,right,hard,,288.44983325000067,290.4557975410006,incorrect,1.955443374999959,fall,left,4.0,297.48251566600084,,,,,
stim_set/hard-82.png,none.png,unmotivated,3.75,stand,right,hard,,297.483261333,299.8558036249997,incorrect,2.3223588750006456,fall,left,3.0,310.54903029100024,,,,,
stim_set/hard-vcom=1-3.png,none.png,unmotivated,2.75,fall,left,hard,,310.54956891599977,311.89749579100135,correct,1.2994417080008134,fall,left,5.0,318.37919683300066,,,,,
stim_set/hard-14.png,none.png,unmotivated,3.25,stand,right,hard,,318.3797970830001,320.86198791600145,incorrect,2.4362935000008292,fall,left,4.0,330.29498133300154,,,,,
stim_set/hard-345.png,none.png,unmotivated,2.5,stand,right,hard,,330.2956992500003,332.4723197500007,correct,2.128666292001072,stand,right,4.0,340.76103941600013,,,,,
stim_set/easy-13.png,none.png,unmotivated,2.5,stand,right,easy,,340.76166495800135,342.8890221250004,correct,2.0758083749988145,stand,right,3.0,348.55999458299993,,,,,
stim_set/hard-382.png,none.png,unmotivated,2.75,stand,right,hard,,348.56054620800023,351.2039325000005,incorrect,2.5972815830009495,fall,left,2.0,357.58818283300025,,,,,
stim_set/hard-549.png,none.png,unmotivated,3.25,stand,right,hard,,357.588825791001,361.6039476660008,incorrect,3.9617177500003886,fall,left,1.0,369.511520041,,,,,
stim_set/hard-vcom=3-7.png,none.png,unmotivated,2.75,fall,left,hard,,369.51209949999975,370.7892806250002,correct,1.2295353329991483,fall,left,5.0,377.3880867910011,,,,,
stim_set/hard-vcom=4-92.png,none.png,unmotivated,2.75,fall,left,hard,,377.38866587499984,380.1789949160011,correct,2.7337851250013054,fall,left,3.0,385.84232466600037,385.8427391660007,,,,
stim_set/easy-vcom=1-145.png,none.png,unmotivated,3.75,fall,left,easy,403.0508892079997,403.0517194160002,404.85551487500015,correct,1.7536532920003085,fall,left,4.0,412.3324807500012,,,,,
stim_set/hard-40.png,none.png,unmotivated,3.0,stand,right,hard,,412.3331277910002,413.8810018330005,incorrect,1.4971834999996645,fall,left,4.0,420.64629700000114,,,,,
stim_set/hard-21.png,none.png,unmotivated,4.0,stand,right,hard,,420.6468721250003,422.3874269160006,incorrect,1.6883748340005695,fall,left,4.0,429.9490270000005,,,,,
stim_set/hard-vcom=2-16.png,none.png,unmotivated,2.5,fall,left,hard,,429.94960883299973,432.25558575000105,correct,2.2538564999995288,fall,left,3.0,438.70524800000015,,,,,
stim_set/hard-280.png,none.png,unmotivated,2.25,stand,right,hard,,438.7058741660003,441.7308680410006,incorrect,2.97363229199982,fall,left,3.0,448.5365084580008,,,,,
stim_set/easy-vcom=3-74.png,none.png,unmotivated,2.25,fall,left,easy,,448.5371389160009,449.92896174999987,correct,1.3363554999996268,fall,left,4.0,455.349727666,,,,,
stim_set/easy-vcom=2-147.png,none.png,unmotivated,3.25,fall,left,easy,,455.3503259580011,457.08745145800094,correct,1.6827105840002332,fall,left,4.0,464.1047960830001,,,,,
stim_set/hard-vcom=1-50.png,none.png,unmotivated,3.75,fall,left,hard,,464.1053640830014,466.2058531250004,correct,2.0488656249999617,fall,left,4.0,473.8431565830015,,,,,
stim_set/easy-590.png,none.png,unmotivated,2.5,stand,right,easy,,473.84372329100006,475.9871486660013,correct,2.087441541998486,stand,right,4.0,482.16914916600035,,,,,
stim_set/easy-vcom=4-19.png,none.png,unmotivated,3.25,fall,left,easy,,482.16991716600023,484.3374868330011,incorrect,2.1115547499994136,stand,right,4.0,491.04720525000084,,,,,
stim_set/easy-164.png,none.png,unmotivated,4.0,stand,right,easy,,491.04777212500085,492.6624195830009,correct,1.5579555000003893,stand,right,4.0,499.5563566660003,,,,,
stim_set/hard-49.png,none.png,unmotivated,2.25,stand,right,hard,,499.55695241600006,502.00413495800063,incorrect,2.389127250000456,fall,left,4.0,507.5834168330002,,,,,
stim_set/hard-vcom=1-130.png,none.png,unmotivated,2.25,fall,left,hard,,507.5840575830008,511.02074329100105,correct,3.3849760840003,fall,left,1.0,519.3597641659999,,,,,
stim_set/hard-vcom=3-145.png,none.png,unmotivated,2.75,fall,left,hard,,519.3603278330011,522.3207186660002,incorrect,2.9145102920010686,stand,right,2.0,530.0074361660008,,,,,
stim_set/easy-vcom=2-94.png,none.png,unmotivated,2.75,fall,left,easy,,530.008057125,531.4957304159998,incorrect,1.4360374579991912,stand,right,1.0,537.3717843330014,,,,,
stim_set/hard-321.png,none.png,unmotivated,2.25,stand,right,hard,,537.3725654580012,538.6978000409999,incorrect,1.2779352919988014,fall,left,5.0,545.0412418750002,,,,,
stim_set/hard-2.png,none.png,unmotivated,2.75,stand,right,hard,,545.0418665830002,548.2142024160003,correct,3.1225485840004694,stand,right,2.0,554.5720128749998,,,,,
stim_set/hard-vcom=2-110.png,none.png,unmotivated,3.0,fall,left,hard,,554.5725659159998,557.3459889160004,correct,2.722488583000086,fall,left,3.0,564.5987467080013,,,,,
stim_set/hard-7.png,none.png,unmotivated,2.25,stand,right,hard,,564.5993178330009,567.9063553750002,incorrect,3.2545139589983587,fall,left,3.0,574.2405232500005,,,,,
stim_set/hard-570.png,none.png,unmotivated,2.25,stand,right,hard,,574.2410279160013,576.9625821660011,incorrect,2.6648615829999467,fall,left,4.0,582.6555927910013,,,,,
stim_set/hard-vcom=2-137.png,none.png,unmotivated,3.0,fall,left,hard,,582.6561361250006,586.9062238330007,incorrect,4.204550791000656,stand,right,2.0,593.2692912500006,,,,,
stim_set/hard-177.png,none.png,unmotivated,2.0,stand,right,hard,,593.2698429160009,595.8291289580011,incorrect,2.512325708001299,fall,left,3.0,601.9415668330003,,,,,
stim_set/hard-vcom=1-30.png,none.png,unmotivated,3.75,fall,left,hard,,601.9421216250012,603.9789762080001,correct,1.9865331250002785,fall,left,3.0,614.2606355000007,,,,,
stim_set/hard-vcom=3-142.png,none.png,unmotivated,3.25,fall,left,hard,,614.261191208001,617.529281000001,correct,3.2113171250002783,fall,left,3.0,623.9437825830007,,,,,
stim_set/hard-vcom=4-147.png,none.png,unmotivated,2.25,fall,left,hard,,623.9444434160014,625.5374630410006,correct,1.5361355420009204,fall,left,4.0,632.6242835000012,,,,,
stim_set/hard-vcom=4-139.png,none.png,unmotivated,4.0,fall,left,hard,,632.6249136250008,635.587643791001,correct,2.9108543330003167,fall,left,3.0,644.2852789160006,,,,,
stim_set/hard-vcom=2-147.png,none.png,unmotivated,2.5,fall,left,hard,,644.286018666,646.1558067080005,correct,1.828740832999756,fall,left,3.0,653.0997441250001,,,,,
stim_set/easy-411.png,none.png,unmotivated,4.0,stand,right,easy,,653.1004492500015,654.4708681660013,correct,1.3145010829994137,stand,right,4.0,662.2553200410002,,,,,
stim_set/hard-vcom=4-142.png,none.png,unmotivated,4.0,fall,left,hard,,662.255863583001,665.1315038330013,correct,2.8270356670000183,fall,left,3.0,676.4324642910016,,,,,
stim_set/hard-369.png,none.png,unmotivated,2.0,stand,right,hard,,676.4331915410003,677.787687,correct,1.3084018329991522,stand,right,4.0,683.7894560830009,,,,,
stim_set/hard-214.png,none.png,unmotivated,3.25,stand,right,hard,,683.7900016660005,685.9042296250009,incorrect,2.0580504999998084,fall,left,5.0,692.5114256249999,,,,,
stim_set/hard-441.png,none.png,unmotivated,2.5,stand,right,hard,,692.5119845000007,694.2813594580002,correct,1.7234922080006072,stand,right,2.0,702.1077428750012,,,,,
stim_set/hard-vcom=4-80.png,none.png,unmotivated,3.75,fall,left,hard,,702.1083071660014,704.364029333001,correct,2.2043244579999737,fall,left,3.0,713.4597398330006,,,,,
stim_set/hard-132.png,none.png,unmotivated,3.75,stand,right,hard,,713.4604545410002,715.0709629580016,incorrect,1.5580746670002554,fall,left,4.0,722.5232328330002,,,,,
stim_set/hard-566.png,none.png,unmotivated,3.75,stand,right,hard,,722.5238203330009,724.287696208001,incorrect,1.7073642080013087,fall,left,3.0,732.8838252500009,,,,,
stim_set/easy-vcom=1-12.png,none.png,unmotivated,2.0,fall,left,easy,,732.8843735830014,735.0900195830002,correct,2.154046540999844,fall,left,4.0,742.8158951660008,,,,,
stim_set/hard-vcom=1-95.png,none.png,unmotivated,2.0,fall,left,hard,,742.8164791250001,745.6645350830004,incorrect,2.801292124999236,stand,right,2.0,751.0552000410008,,,,,
stim_set/hard-vcom=1-136.png,none.png,unmotivated,2.5,fall,left,hard,,751.0557538749997,753.7709655830004,correct,2.6632899579999503,fall,left,3.0,761.7244399580012,,,,,
stim_set/hard-182.png,none.png,unmotivated,4.0,stand,right,hard,,761.7249741659998,764.2294293330016,incorrect,2.458572749999804,fall,left,3.0,774.1345176249997,,,,,
stim_set/hard-91.png,none.png,unmotivated,2.25,stand,right,hard,,774.1350684580011,776.8895638330014,incorrect,2.7048810830001457,fall,left,4.0,782.431990041001,782.4323173330013,,,,
stim_set/hard-391.png,stand.png,cooperation,2.75,stand,right,hard,0.00015075000010256193,0.0007650420011486857,7.583166250000431,correct,2.547316291998868,stand,right,2.0,14.194342542001325,,,,1.0123185840002409,
stim_set/hard-382.png,fall.png,cooperation,3.75,stand,right,hard,,14.195050917000115,21.414590084001244,incorrect,2.1855845419995603,fall,left,2.0,28.4496384590002,,,,15.20693458400092,
stim_set/easy-vcom=3-38.png,stand.png,cooperation,2.25,fall,left,easy,,28.450184792000073,36.14993641700129,correct,2.661779665999348,fall,left,2.0,42.70320095900024,,,,29.46099437500016,
stim_set/hard-549.png,stand.png,cooperation,2.25,stand,right,hard,,42.703817834000795,50.08099462500104,correct,2.3368331669989857,stand,right,2.0,55.82200141700014,,,,43.71481170900006,
stim_set/hard-492.png,fall.png,cooperation,2.25,stand,right,hard,,55.8225767920012,62.8478833750014,incorrect,1.9857082919988895,fall,left,3.0,68.86200620900128,,,,56.832812250000636,
stim_set/hard-2.png,stand.png,cooperation,3.25,stand,right,hard,,68.8625657090015,76.11453275000167,correct,2.210650916998929,stand,right,2.0,82.90314000000035,,,,69.87315308400139,
stim_set/hard-334.png,fall.png,cooperation,2.75,stand,right,hard,,82.90371945900006,89.1577285000003,incorrect,1.2220733750000363,fall,left,3.0,98.15400312500059,,,,83.91430962500091,
stim_set/easy-vcom=1-12.png,stand.png,cooperation,2.25,fall,left,easy,,98.15454658400084,106.09109925000121,correct,2.8998840839994955,fall,left,2.0,111.67903570900124,,,,99.1645229170008,
stim_set/easy-280.png,fall.png,cooperation,3.0,stand,right,easy,,111.67959870900086,118.46668120899994,correct,1.7535582920008892,stand,right,4.0,125.26054416700028,,,,112.68980754200129,
stim_set/hard-441.png,fall.png,cooperation,2.0,stand,right,hard,,125.26107283400052,132.2561021670008,correct,1.9585517080013235,stand,right,3.0,138.56024141700073,,,,126.27141866700005,
stim_set/hard-321.png,stand.png,cooperation,2.25,stand,right,hard,,138.56082787500054,145.04130849999999,incorrect,1.4473273750008957,fall,left,4.0,151.08591875000093,,,,139.5715787500012,
stim_set/hard-566.png,fall.png,cooperation,3.25,stand,right,hard,,151.08644491700036,158.5396230840015,incorrect,2.409701209000559,fall,left,3.0,166.48699766700156,,,,152.09665408399997,
stim_set/hard-82.png,stand.png,cooperation,2.25,stand,right,hard,,166.48755825000083,172.89992220900058,correct,1.3732247079988156,stand,right,2.0,178.6625425000002,,,,167.49834512500092,
stim_set/hard-vcom=4-139.png,stand.png,cooperation,2.75,fall,left,hard,,178.6631591670011,187.7646714170005,incorrect,4.062203667001087,stand,right,1.0,193.5534608340004,,,,179.67411025,
stim_set/hard-vcom=1-50.png,fall.png,cooperation,4.0,fall,left,hard,,193.55408637500113,200.54150850000042,correct,1.9495029589998008,fall,left,2.0,208.95976716699988,,,,194.5643719590007,
stim_set/hard-vcom=1-3.png,fall.png,cooperation,2.25,fall,left,hard,,208.9603681670014,215.2500357920016,correct,1.2545870840003772,fall,left,4.0,222.32763416700072,,,,209.97103529200103,
stim_set/hard-91.png,stand.png,cooperation,3.75,stand,right,hard,,222.32816379200085,230.5313572089999,correct,3.1628005839993416,stand,right,2.0,237.3606282920009,,,,223.3387893750005,
stim_set/hard-367.png,stand.png,cooperation,3.75,stand,right,hard,,237.3612540000013,244.9647950000017,correct,2.564280999999028,stand,right,3.0,251.53772779200156,,,,238.37221491700072,
stim_set/easy-vcom=4-19.png,fall.png,cooperation,2.25,fall,left,easy,,251.53829399999995,258.25011620900113,incorrect,1.6740288750006584,stand,right,4.0,263.7180015840004,,,,252.5486222920008,
stim_set/hard-vcom=3-34.png,stand.png,cooperation,3.25,fall,left,hard,,263.7185631250013,272.5078943750013,correct,3.751178458000141,fall,left,1.0,279.55112625000044,,,,264.72925379200024,
stim_set/hard-vcom=3-110.png,stand.png,cooperation,2.0,fall,left,hard,,279.55168666700047,288.23339387500164,correct,3.652953540999079,fall,left,3.0,294.1656602920011,,,,280.56213175000084,
stim_set/hard-vcom=3-145.png,fall.png,cooperation,3.75,fall,left,hard,,294.16638712500026,301.38983908400036,incorrect,2.1904257499991218,stand,right,2.0,308.7325350840001,,,,295.1768311250016,
stim_set/easy-411.png,stand.png,cooperation,2.0,stand,right,easy,,308.73308479200017,315.33987550000165,correct,1.5641102910012703,stand,right,4.0,320.6281983750014,,,,309.74344950000165,
stim_set/hard-244.png,stand.png,cooperation,2.5,stand,right,hard,,320.6287539590012,329.1065753340008,incorrect,3.4352095409994945,fall,left,1.0,335.27277137500096,,,,321.6392827920008,
stim_set/easy-590.png,fall.png,cooperation,4.0,stand,right,easy,,335.2734005000002,341.6815677090017,correct,1.3646751249998488,stand,right,5.0,349.3498032090011,,,,336.28435500000165,
stim_set/hard-402.png,stand.png,cooperation,3.75,stand,right,hard,,349.3503477090016,358.1414301670011,correct,3.7544316669991535,stand,right,1.0,365.56354945900057,,,,350.36078587500015,
stim_set/hard-vcom=4-23.png,fall.png,cooperation,3.0,fall,left,hard,,365.5640781250004,372.9650685000015,correct,2.3617275839988,fall,left,2.0,381.8768720420012,,,,366.57481412500056,
stim_set/hard-vcom=1-130.png,stand.png,cooperation,2.5,fall,left,hard,,381.87743637499983,390.2483596670008,incorrect,3.3326372499996073,stand,right,3.0,396.6518777090005,,,,382.88818266700036,
stim_set/hard-vcom=2-147.png,stand.png,cooperation,2.5,fall,left,hard,,396.6525197500014,403.7983602920012,correct,2.112790875000428,fall,left,2.0,415.28878420900037,,,,397.66329150000087,
stim_set/hard-vcom=4-142.png,fall.png,cooperation,2.25,fall,left,hard,,415.28938941700113,423.91469358399985,incorrect,3.586643582999386,stand,right,2.0,431.91088662500084,,,,416.2995334170009,
stim_set/easy-vcom=3-15.png,stand.png,cooperation,3.0,fall,left,easy,,431.91143254200136,439.9400869170004,incorrect,2.9888835000001563,stand,right,3.0,450.0608998750012,,,,432.92229312500064,
stim_set/hard-316.png,stand.png,cooperation,2.5,stand,right,hard,,450.0614567500015,458.6835250420008,correct,3.588626500000828,stand,right,3.0,466.1778829170016,,,,451.07186279200135,
stim_set/easy-vcom=4-126.png,stand.png,cooperation,2.5,fall,left,easy,,466.17871941700105,474.6171628340017,incorrect,3.399452749999909,stand,right,2.0,484.3850672920016,,,,467.1897537500008,
stim_set/easy-13.png,fall.png,cooperation,3.25,stand,right,easy,,484.3856494170013,490.9651036670002,correct,1.5375359999998182,stand,right,4.0,498.05662699999993,,,,485.39575350000086,
stim_set/easy-vcom=3-142.png,fall.png,cooperation,3.25,fall,left,easy,,498.0571694999999,506.81689983400076,correct,3.7238598750009264,fall,left,2.0,516.2307883340001,,,,499.06725687500153,
stim_set/hard-280.png,stand.png,cooperation,3.25,stand,right,hard,,516.2313325840005,523.8421405000008,incorrect,2.572721999998976,fall,left,3.0,530.8553313749999,,,,517.2417827090012,
stim_set/easy-vcom=1-145.png,stand.png,cooperation,3.75,fall,left,easy,,530.8558674590004,537.4173234590016,correct,1.5251904579999973,fall,left,3.0,545.4104725420002,,,,531.8664732090001,
stim_set/hard-vcom=4-75.png,fall.png,cooperation,2.0,fall,left,hard,,545.4111862919999,553.5901452090002,correct,3.1369592499995638,fall,left,3.0,559.2940858340007,,,,546.4217659590013,
stim_set/hard-vcom=2-100.png,fall.png,cooperation,4.0,fall,left,hard,,559.2946465840014,567.3235597090006,correct,2.989931125001021,fall,left,1.0,574.7495435420005,,,,560.3044904590006,
stim_set/hard-177.png,stand.png,cooperation,2.0,stand,right,hard,,574.7500975420007,582.8504552090018,incorrect,3.072432582999681,fall,left,2.0,588.2543580000001,588.2547060840006,,,575.7607742500004,
stim_set/easy-vcom=2-3.png,fall.png,cooperation,3.75,fall,left,easy,608.0103336250012,608.0111144170005,615.8653060840006,correct,2.812124500000209,fall,left,3.0,623.7320171670017,,,,609.0230795000008,
stim_set/hard-vcom=4-92.png,fall.png,cooperation,2.25,fall,left,hard,,623.7325347500008,631.3257355840013,correct,2.554938540999501,fall,left,3.0,637.5275096670011,,,,624.7426543750007,
stim_set/easy-164.png,stand.png,cooperation,3.75,stand,right,easy,,637.5280717920014,644.4169952500015,correct,1.850676125000973,stand,right,4.0,651.6355666670006,,,,638.5388008340013,
stim_set/hard-vcom=1-136.png,stand.png,cooperation,2.75,fall,left,hard,,651.6363062090004,660.2071114999999,correct,3.5320092090005346,fall,left,1.0,667.0110144170013,,,,652.6471472920002,
stim_set/easy-538.png,fall.png,cooperation,2.5,stand,right,easy,,667.0115090840009,673.1821400420013,correct,1.13380962500014,stand,right,5.0,679.7291365420007,,,,668.0217712090016,
stim_set/hard-vcom=3-7.png,stand.png,cooperation,2.75,fall,left,hard,,679.7296538340015,687.8568723750012,correct,3.0888860830000335,fall,left,2.0,700.6886418339999,,,,680.7403122920005,
stim_set/easy-vcom=1-73.png,fall.png,cooperation,2.5,fall,left,easy,,700.6893120420009,708.8071280000003,correct,3.0853544159999733,fall,left,3.0,716.7376513340006,,,,701.6995350840007,
stim_set/hard-vcom=3-82.png,stand.png,cooperation,2.5,fall,left,hard,,716.7384078750001,724.1154249170012,correct,2.3356718750001164,fall,left,2.0,729.6075603750014,,,,717.7492202090016,
stim_set/hard-14.png,stand.png,cooperation,2.5,stand,right,hard,,729.6081260420015,738.7737987090004,incorrect,4.133455582999886,fall,left,3.0,745.7935109170012,,,,730.6185033340007,
stim_set/hard-369.png,fall.png,cooperation,2.5,stand,right,hard,,745.7940820840013,753.2903015420015,correct,2.4642837080009485,stand,right,4.0,759.4009483750016,,,,746.804276334,
stim_set/easy-vcom=4-69.png,fall.png,cooperation,4.0,fall,left,easy,,759.4014777920003,768.4918558340013,incorrect,4.053418833000252,stand,right,2.0,777.2372555840011,,,,760.4121112090014,
stim_set/hard-vcom=2-20.png,fall.png,cooperation,2.0,fall,left,hard,,777.2378397090015,783.8154285,correct,1.5358302499989804,fall,left,4.0,789.8937599590007,,,,778.248113959,
stim_set/hard-vcom=3-142.png,stand.png,cooperation,4.0,fall,left,hard,,789.8943373750008,797.3237983340006,correct,2.3865897499999846,fall,left,2.0,805.2936262090005,,,,790.9048849999998,
stim_set/hard-7.png,fall.png,cooperation,2.75,stand,right,hard,,805.2941745420012,813.3988469169998,incorrect,3.061632458000531,fall,left,3.0,821.1874659170007,,,,806.3046654170012,
stim_set/hard-132.png,stand.png,cooperation,3.0,stand,right,hard,,821.188001292001,829.4405918749999,incorrect,3.213854749999882,fall,left,3.0,837.6296407919998,,,,822.1983783340003,
stim_set/hard-vcom=4-147.png,fall.png,cooperation,3.25,fall,left,hard,,837.630201334001,845.132369125,correct,2.4590328329995828,fall,left,2.0,853.9441366250012,,,,838.6408086250012,
stim_set/hard-vcom=1-30.png,stand.png,cooperation,2.5,fall,left,hard,,853.9446897500003,861.4155778340008,correct,2.4338506669992057,fall,left,3.0,867.8670634170012,,,,854.9552547920011,
stim_set/easy-vcom=1-87.png,fall.png,cooperation,2.5,fall,left,easy,,867.8676022920007,875.882101250001,incorrect,2.9738345419991674,stand,right,3.0,884.0027275840002,,,,868.8776615000006,
stim_set/easy-vcom=3-74.png,fall.png,cooperation,2.25,fall,left,easy,,884.0033366670012,891.2675690000016,correct,2.2262354169997707,fall,left,3.0,898.0561503750014,,,,885.014435500001,
stim_set/easy-vcom=2-20.png,stand.png,cooperation,4.0,fall,left,easy,,898.0567837090002,906.3926248750013,incorrect,3.3021984589995554,stand,right,3.0,914.1335483340007,,,,899.0672252920012,
stim_set/hard-570.png,fall.png,cooperation,2.0,stand,right,hard,,914.1342339170004,923.3156601250013,correct,4.13808175000122,stand,right,2.0,929.277873375,,,,915.1449235420005,
stim_set/hard-78.png,fall.png,cooperation,2.25,stand,right,hard,,929.2784088340013,938.6006712920007,correct,4.286629791999076,stand,right,2.0,944.976902792001,,,,930.288672042001,
stim_set/hard-40.png,stand.png,cooperation,3.0,stand,right,hard,,944.9775425840016,952.8175568750012,incorrect,2.802063208000618,fall,left,3.0,960.2539190840016,,,,945.989028334001,
stim_set/hard-vcom=2-16.png,stand.png,cooperation,2.25,fall,left,hard,,960.2547762500017,968.5573514590013,incorrect,3.2590132499990427,stand,right,2.0,974.5352595420007,,,,961.2654113750012,
stim_set/hard-599.png,fall.png,cooperation,2.0,stand,right,hard,,974.5358189590005,982.9923716669999,incorrect,3.4293459999989864,fall,left,3.0,988.885454792,,,,975.5457936250003,
stim_set/hard-vcom=2-137.png,fall.png,cooperation,2.25,fall,left,hard,,988.8861155000012,996.7592315840013,correct,2.841363042000012,fall,left,3.0,1005.6561218750012,,,,989.8966070840016,
stim_set/hard-600.png,fall.png,cooperation,3.0,stand,right,hard,,1005.6566865000003,1013.5991218340004,incorrect,2.9092939170004684,fall,left,1.0,1020.5022013340003,,,,1006.6674418340007,
stim_set/hard-182.png,stand.png,cooperation,2.75,stand,right,hard,,1020.5028887500013,1027.8839412920006,correct,2.35270245799984,stand,right,2.0,1037.3628527090004,,,,1021.514407042001,
stim_set/easy-vcom=2-94.png,fall.png,cooperation,4.0,fall,left,easy,,1037.3634760420011,1047.065800167,correct,4.663994167000054,fall,left,1.0,1054.1572590840003,,,,1038.3740571670005,
stim_set/easy-344.png,stand.png,cooperation,2.75,stand,right,easy,,1054.1578648339998,1060.5823783340002,correct,1.3865125419997641,stand,right,5.0,1067.7317093750007,,,,1055.1685901670007,
stim_set/easy-vcom=3-74.png,fall.png,cooperation,2.25,fall,left,easy,,1067.732320250001,1075.5931936670004,correct,2.8234413749996747,fall,left,2.0,1082.0641577920014,,,,1068.7428640420005,
stim_set/hard-vcom=2-110.png,stand.png,cooperation,2.5,fall,left,hard,,1082.0647575420007,1092.1158684170005,incorrect,,,,,1098.7347037090003,,,,1083.0756115420008,
stim_set/hard-21.png,fall.png,cooperation,2.5,stand,right,hard,,1098.7353953750007,1107.1926726670008,correct,3.424566000001505,stand,right,2.0,1113.1696692090006,,,,1099.745353667,
stim_set/easy-77.png,stand.png,cooperation,2.5,stand,right,easy,,1113.17023125,1119.3492852920008,correct,1.139743499999895,stand,right,5.0,1125.5132465840015,,,,1114.1810265840013,
stim_set/hard-214.png,fall.png,cooperation,3.25,stand,right,hard,,1125.5138162090007,1133.9660640000004,incorrect,3.4098884590002854,fall,left,1.0,1142.373836959001,,,,1126.5240926250008,
stim_set/hard-49.png,stand.png,cooperation,3.0,stand,right,hard,,1142.3743615840012,1151.6076516250016,correct,4.189852542000153,stand,right,1.0,1160.2303761250005,,,,1143.3848892500012,
stim_set/hard-345.png,fall.png,cooperation,2.25,stand,right,hard,,1160.2310028340014,1166.4826120840007,correct,1.213438667000446,stand,right,5.0,1173.1360697090006,,,,1161.241419,
stim_set/hard-vcom=1-95.png,fall.png,cooperation,2.5,fall,left,hard,,1173.1368069590008,1181.557617167,incorrect,3.382151750000048,stand,right,3.0,1189.329609542001,,,,1174.146915792,
stim_set/hard-564.png,stand.png,cooperation,2.25,stand,right,hard,,1189.3302357920002,1197.417936209,correct,3.0504536249991365,stand,right,3.0,1203.6888540420005,,,,1190.3410711250015,
stim_set/easy-vcom=2-147.png,stand.png,cooperation,3.0,fall,left,easy,,1203.689412834001,1211.566052125001,correct,2.836251708000418,fall,left,3.0,1218.6938125840006,1218.694225000001,,,1204.7000147920007,
stim_set/hard-vcom=4-80.png,fall.png,cooperation,4.0,fall,left,hard,0.00012179099940112792,0.0007137079992389772,10.05910854099966,incorrect,,,,,16.72286712499954,,,,1.0128639159993327,
stim_set/hard-vcom=1-136.png,fall.png,competition,3.25,fall,left,hard,,16.72347733300012,23.750832415998957,incorrect,1.989092083000287,stand,right,2,30.593599207999432,,,,17.73406887499914,
stim_set/hard-369.png,stand.png,competition,3.0,stand,right,hard,,30.594157083000027,36.75931287499952,correct,1.1323822499998641,stand,right,5,43.998391540999364,,,,31.604361957999572,
stim_set/hard-vcom=2-147.png,fall.png,competition,2.0,fall,left,hard,,43.99899883299986,51.81759387499915,correct,2.7859709590011335,fall,left,3,57.7023276660002,,,,45.00921324999945,
stim_set/hard-vcom=2-20.png,stand.png,competition,3.75,fall,left,hard,,57.70284075000018,64.95927195799959,correct,2.2137433330008207,fall,left,3,72.82923929099888,,,,58.713701540998954,
stim_set/easy-vcom=1-73.png,fall.png,competition,4.0,fall,left,easy,,72.82986566599902,81.37584545800019,incorrect,3.5133067919996392,stand,right,3,89.57465587499973,,,,73.84021120800026,
stim_set/hard-132.png,stand.png,competition,2.75,stand,right,hard,,89.57521104099942,98.135988,incorrect,3.5264979169987782,fall,left,1,104.74850133299879,,,,90.58610170799875,
stim_set/easy-vcom=2-20.png,fall.png,competition,3.0,fall,left,easy,,104.7492010829992,113.80103450000024,incorrect,4.013220541999544,stand,right,2,122.27172749999954,,,,105.75953166599902,
stim_set/hard-280.png,fall.png,competition,2.5,stand,right,hard,,122.27227095799935,130.62594949999948,incorrect,3.3115807909998694,fall,left,1,139.02092058299968,,,,123.28244620799887,
stim_set/hard-600.png,stand.png,competition,2.25,stand,right,hard,,139.0214649999998,147.34278979099872,correct,3.2877832079993823,stand,right,2,154.43344983299903,,,,140.03289645800032,
stim_set/hard-334.png,stand.png,competition,3.25,stand,right,hard,,154.43411129099877,161.38434470799984,incorrect,1.9127487919995474,fall,left,2,169.0642172909993,,,,155.4452032499994,
stim_set/easy-vcom=1-12.png,stand.png,competition,2.75,fall,left,easy,,169.06474645799972,176.94263345800027,correct,2.835818166999161,fall,left,2,186.07945704099984,,,,170.07531224999912,
stim_set/easy-vcom=2-147.png,fall.png,competition,2.5,fall,left,easy,,186.08010820799973,194.83388895799908,incorrect,3.7128172909997375,stand,right,2,200.29740883299928,,,,187.0913850830002,
stim_set/easy-590.png,stand.png,competition,4.0,stand,right,easy,,200.2979618749996,206.45108445799997,correct,1.1105003339998802,stand,right,5,216.96235024999987,,,,201.30846812500022,
stim_set/hard-91.png,stand.png,competition,2.0,stand,right,hard,,216.96298620800007,224.19281475000025,correct,2.1890556669986836,stand,right,3,229.34321199999977,,,,217.97404695799924,
stim_set/hard-vcom=1-95.png,fall.png,competition,2.25,fall,left,hard,,229.34381349999967,236.37796379099927,incorrect,2.0010369999999966,stand,right,3,243.14685683300013,,,,230.3541538749996,
stim_set/hard-402.png,stand.png,competition,2.25,stand,right,hard,,243.14739745800034,250.93583000000035,incorrect,2.7516249170002993,fall,left,3,257.16884458299864,,,,244.15791974999956,
stim_set/hard-49.png,fall.png,competition,3.75,stand,right,hard,,257.16940624999916,265.96098083299876,correct,3.752981166000609,stand,right,2,274.2056052909993,,,,258.1800090830002,
stim_set/easy-vcom=4-69.png,stand.png,competition,3.0,fall,left,easy,,274.20623166599944,281.2261478749988,incorrect,1.978101417000289,stand,right,2,288.1519320409989,,,,275.2168039579992,
stim_set/easy-vcom=3-38.png,fall.png,competition,2.5,fall,left,easy,,288.1524643749999,295.64479762500014,correct,2.45472908299962,fall,left,3,304.6130512079999,,,,289.1629879159991,
stim_set/hard-vcom=3-7.png,stand.png,competition,2.25,fall,left,hard,,304.6136518329986,311.994793124999,correct,2.347335624999687,fall,left,3,318.65689720799855,,,,305.62443625000014,
stim_set/easy-vcom=3-142.png,fall.png,competition,2.5,fall,left,easy,,318.6574736659986,324.969580125,incorrect,1.276340207999965,stand,right,4,331.0996605829987,,,,319.66767875000005,
stim_set/hard-345.png,fall.png,competition,3.25,stand,right,hard,,331.10021666600005,337.4511042079994,correct,1.31318845900023,stand,right,4,343.72003916599897,,,,332.1104893749998,
stim_set/easy-164.png,stand.png,competition,2.5,stand,right,easy,,343.72059295799954,349.9013022910003,correct,1.1378903339991666,stand,right,5,356.54729708299965,,,,344.73088033299973,
stim_set/hard-2.png,fall.png,competition,2.75,stand,right,hard,,356.547922415999,363.90132962499956,correct,2.3126493339987064,stand,right,4,369.885971665999,,,,357.5583229999993,
stim_set/hard-vcom=4-75.png,stand.png,competition,3.25,fall,left,hard,,369.88651970799947,377.0782972500001,incorrect,2.1542556250005873,stand,right,3,383.4477557909995,,,,370.89688874999956,
stim_set/hard-40.png,stand.png,competition,2.25,stand,right,hard,,383.44830320799883,390.8011066250001,incorrect,2.311353584000244,fall,left,2,397.63356729099905,,,,384.45934604099966,
stim_set/hard-vcom=2-100.png,stand.png,competition,2.75,fall,left,hard,,397.63409324999884,405.38463866599886,incorrect,2.7113874579990807,stand,right,2,412.31732358299996,,,,398.64484429099866,
stim_set/hard-vcom=3-145.png,fall.png,competition,4.0,fall,left,hard,,412.3178632910003,418.9847368749997,incorrect,1.6348686669989547,stand,right,3,426.6547208329994,,,,413.3277700409999,
stim_set/hard-82.png,stand.png,competition,2.25,stand,right,hard,,426.65551766599856,435.020060416,incorrect,3.327649459000895,fall,left,1,440.9889039159989,,,,427.66667912499906,
stim_set/easy-vcom=2-3.png,fall.png,competition,2.5,fall,left,easy,,440.9894531659993,447.29291320799894,incorrect,1.2636078329996963,stand,right,5,452.6420284579999,,,,441.999623624999,
stim_set/hard-566.png,fall.png,competition,3.75,stand,right,hard,,452.6425737499994,461.4782866249989,correct,3.797581166998498,stand,right,3,471.94198833299924,,,,453.65246750000006,
stim_set/hard-214.png,fall.png,competition,2.0,stand,right,hard,,471.9425342499999,480.55140979099997,incorrect,3.566749040999639,fall,left,2,485.9356659999994,,,,472.9527804579993,
stim_set/easy-vcom=4-19.png,stand.png,competition,2.0,fall,left,easy,,485.9362882079986,492.1030367080002,incorrect,1.129453540999748,stand,right,4,498.85590608299935,,,,486.9468024159996,
stim_set/easy-280.png,fall.png,competition,3.75,stand,right,easy,,498.8564849159993,505.1949697909986,correct,1.3048925000002782,stand,right,5,512.277810915999,,,,499.86689837499944,
stim_set/hard-321.png,stand.png,competition,3.0,stand,right,hard,,512.278444874999,518.9766025829995,incorrect,1.6602488329990592,fall,left,4,526.424403166,,,,513.289438541,
stim_set/hard-182.png,fall.png,competition,2.25,stand,right,hard,,526.4249567079987,535.5527936660001,correct,4.101032917000339,stand,right,1,541.6568698329993,,,,527.43530775,
stim_set/hard-vcom=3-34.png,fall.png,competition,2.5,fall,left,hard,,541.6574539159992,551.194974041,incorrect,4.499835250000615,stand,right,2,556.4576018749995,,,,542.6675504159994,
stim_set/easy-538.png,stand.png,competition,2.5,stand,right,easy,,556.4581403329994,562.5452795829988,correct,1.0545398750000459,stand,right,5,567.7941262080003,,,,557.4690942500001,
stim_set/hard-244.png,fall.png,competition,4.0,stand,right,hard,,567.7948496249992,574.8015334579995,correct,1.9645660419992055,stand,right,3,583.415711915999,583.4160415829992,,,568.8051612910003,
stim_set/easy-13.png,stand.png,competition,2.25,stand,right,easy,602.5731138329993,602.5738704579999,608.5866416249992,correct,0.9730962499997986,stand,right,5,614.0491549580001,,,,603.5861339160001,
stim_set/hard-vcom=4-23.png,fall.png,competition,3.25,fall,left,hard,,614.049706415999,623.2515592500004,correct,4.162342708999859,fall,left,2,629.3841625409987,,,,615.0600728329991,
stim_set/hard-vcom=4-80.png,fall.png,competition,2.5,fall,left,hard,,629.3846757499996,639.4449379580001,incorrect,,,,,644.5239458750002,,,,630.3949147909989,
stim_set/easy-77.png,stand.png,competition,2.0,stand,right,easy,,644.5245555000001,650.5615372909997,correct,1.003369042000486,stand,right,5,656.3989657499988,,,,645.535247541,
stim_set/hard-177.png,fall.png,competition,3.75,stand,right,hard,,656.3995317909994,663.5183694999996,correct,2.0870107499995356,stand,right,2,669.8125631659987,,,,657.4095711249993,
stim_set/easy-vcom=2-94.png,stand.png,competition,4.0,fall,left,easy,,669.8132468329986,677.285064624999,incorrect,2.433987750000597,stand,right,3,685.6069571249991,,,,670.8237334999994,
stim_set/hard-vcom=1-30.png,fall.png,competition,2.75,fall,left,hard,,685.6074966659999,692.5450629999996,correct,1.9050380420012516,fall,left,3,699.0943602909992,,,,686.6182039579999,
stim_set/easy-vcom=3-15.png,stand.png,competition,3.0,fall,left,easy,,699.0949034999994,706.2182869579992,incorrect,2.0845412080016104,stand,right,3,713.2713819580003,,,,700.105302041,
stim_set/hard-vcom=1-3.png,fall.png,competition,2.5,fall,left,hard,,713.2719092499992,719.8182765829988,correct,1.5067079579985148,fall,left,4,726.3970718749988,,,,714.2821340409992,
stim_set/easy-411.png,stand.png,competition,2.25,stand,right,easy,,726.3976768749999,732.476583665999,correct,1.036168209000607,stand,right,5,737.4161775409993,,,,727.4081635000002,
stim_set/easy-344.png,fall.png,competition,3.25,stand,right,easy,,737.4168154159997,743.5283947909993,correct,1.0790185410005506,stand,right,5,749.9359960410002,,,,738.4270365409993,
stim_set/hard-vcom=3-142.png,stand.png,competition,2.75,fall,left,hard,,749.9365507909988,757.5183657910002,incorrect,2.539057125000909,stand,right,3,763.6288047500002,,,,750.9472860409987,
stim_set/hard-vcom=3-110.png,stand.png,competition,2.5,fall,left,hard,,763.6293992499996,770.3619477909997,correct,1.704165125000145,fall,left,3,777.2514255829992,,,,764.6404344579987,
stim_set/hard-441.png,fall.png,competition,4.0,stand,right,hard,,777.2520311249991,783.9018275830003,correct,1.6131297909996647,stand,right,4,791.3283604999997,,,,778.2622813749986,
stim_set/hard-570.png,fall.png,competition,2.0,stand,right,hard,,791.3289250409998,800.5453200829998,correct,4.178603165999448,stand,right,2,805.4867965409994,,,,792.338998833,
stim_set/hard-492.png,stand.png,competition,2.25,stand,right,hard,,805.4873344999996,813.3200171249991,correct,2.7975332500009245,stand,right,3,818.8898502909997,,,,806.4982068749996,
stim_set/hard-vcom=3-82.png,fall.png,competition,2.25,fall,left,hard,,818.890624624999,828.9185528329999,incorrect,4.987520249998852,stand,right,1,834.2572877499988,,,,819.9009160829992,
stim_set/hard-vcom=1-50.png,stand.png,competition,3.75,fall,left,hard,,834.25799525,841.2601142080002,incorrect,1.9594452080000337,stand,right,2,847.9963847079998,,,,835.2684775830003,
stim_set/hard-vcom=2-137.png,stand.png,competition,3.0,fall,left,hard,,847.997192625,855.2686146249998,incorrect,2.2347623329987982,stand,right,3,861.6565109999992,,,,849.0079566249988,
stim_set/hard-vcom=4-147.png,fall.png,competition,2.5,fall,left,hard,,861.6570654999996,869.5702260409998,correct,2.8754744170000777,fall,left,3,874.8820811659989,,,,862.6673779159992,
stim_set/hard-599.png,stand.png,competition,2.25,stand,right,hard,,874.8827896659986,882.6537680000001,correct,2.7434539580008277,stand,right,3,888.56188225,,,,875.893014457999,
stim_set/hard-vcom=4-139.png,fall.png,competition,2.5,fall,left,hard,,888.5624519159992,897.1103094579994,incorrect,3.509963874999812,stand,right,3,903.323759416,,,,889.5726132500004,
stim_set/hard-vcom=1-130.png,fall.png,competition,3.25,fall,left,hard,,903.3242994159991,910.1520534579995,incorrect,1.7894011250009498,stand,right,3,917.011393625,,,,904.334833040999,
stim_set/easy-vcom=1-87.png,stand.png,competition,2.5,fall,left,easy,,917.0119470829995,923.3185221659987,incorrect,1.2645557079995342,stand,right,4,929.3634132079987,,,,918.0226903330004,
stim_set/hard-549.png,stand.png,competition,2.75,stand,right,hard,,929.3640806659987,938.4185898329997,incorrect,4.014854500001093,fall,left,1,945.5817003329994,,,,930.374630458,
stim_set/hard-391.png,stand.png,competition,3.25,stand,right,hard,,945.5821964579991,954.2102898329995,correct,3.589686499999516,stand,right,2,960.4890518329994,,,,946.5933622499997,
stim_set/hard-vcom=2-110.png,fall.png,competition,2.25,fall,left,hard,,960.4897202079992,968.5704125829998,incorrect,3.0491705000004004,stand,right,2,974.7698154999998,,,,961.4996840000003,
stim_set/hard-vcom=4-142.png,stand.png,competition,2.75,fall,left,hard,,974.7703473749989,981.1936146659991,incorrect,1.3842334580003808,stand,right,3,987.5738760409986,,,,975.7813095000001,
stim_set/hard-564.png,fall.png,competition,4.0,stand,right,hard,,987.5744275409997,995.8768984580001,correct,3.2612170000011247,stand,right,2,1003.8243600409987,,,,988.5850364159996,
stim_set/hard-vcom=2-16.png,stand.png,competition,2.25,fall,left,hard,,1003.8249241249996,1011.7104079580004,incorrect,2.8427850420011964,stand,right,3,1017.881106666,,,,1004.8354705410002,
stim_set/easy-vcom=4-126.png,stand.png,competition,3.0,fall,left,easy,,1017.8817137499991,1024.1198329999988,incorrect,1.2002581669985375,stand,right,4,1030.6566224580001,,,,1018.8928160409996,
stim_set/hard-vcom=4-92.png,fall.png,competition,3.75,fall,left,hard,,1030.6571858749994,1038.3605439579987,incorrect,2.6600314999996044,stand,right,3,1044.8445333749987,,,,1031.667624874999,
stim_set/hard-7.png,stand.png,competition,2.0,stand,right,hard,,1044.8450857079988,1051.952112416,correct,2.064108665999811,stand,right,3,1057.0785582499993,,,,1045.8553412909987,
stim_set/hard-382.png,stand.png,competition,2.0,stand,right,hard,,1057.0790900829998,1064.9773260829988,correct,2.8655764169998292,stand,right,3,1071.3461257910003,,,,1058.0897546659999,
stim_set/hard-316.png,fall.png,competition,3.75,stand,right,hard,,1071.346681125,1077.568781124999,correct,1.184218124999461,stand,right,3,1084.9742344999995,,,,1072.3570549999986,
stim_set/hard-367.png,stand.png,competition,3.0,stand,right,hard,,1084.974737790999,1091.3272935829991,correct,1.3131275420000748,stand,right,3,1097.2150769580003,,,,1085.9855134999998,
stim_set/hard-21.png,fall.png,competition,2.25,stand,right,hard,,1097.215619916,1104.9605505829986,correct,2.707704250000461,stand,right,3,1112.651266040999,,,,1098.22579425,
stim_set/hard-78.png,stand.png,competition,2.5,stand,right,hard,,1112.6519362500003,1120.027293457999,incorrect,2.334096166998279,fall,left,2,1127.5400877909997,,,,1113.662802249999,
stim_set/easy-vcom=1-145.png,fall.png,competition,2.5,fall,left,easy,,1127.5406182079987,1135.5188180409987,correct,2.937436333999358,fall,left,3,1141.596087124999,,,,1128.5513518749995,
stim_set/hard-14.png,stand.png,competition,4.0,stand,right,hard,,1141.5966340409996,1147.52946625,correct,0.9043370829986088,stand,right,2,1155.2000694580001,1155.2004064159992,,,1142.6074478749997,
stim_set/hard-410.png,stand.png,cooperation,3.75,stand,right,hard,2.6249999791616574e-06,0.0022945830005483003,8.332294583000476,incorrect,3.308452041999772,fall,left,1.0,16.904489291999198,16.905031166999837,,,1.0191461670001445,
stim_set/hard-188.png,stand.png,competition,4.0,stand,right,hard,2.6249999791616574e-06,0.0023299170006794157,8.43678304199966,correct,3.4241279999987455,stand,right,3,16.63879950000046,16.639330750000227,,,1.0165844580005796,
