towers,bet,condition,iti,corr_choice,corr_key,difficulty,block_start,trial_start,stim_on,acc,rt,part_choice,part_key,confidence,trial_end,block_end,updated_score,condition_first,cue_on,condition_second
stim_set/easy-vcom=3-142.png,none.png,unmotivated,2.75,fall,left,easy,3.6250021366868172e-06,0.0027462500002002344,1.8325462920001885,incorrect,1.7769747909987927,stand,right,3.0,8.259536375000607,,225.0,cooperation,,competition
stim_set/hard-vcom=4-75.png,none.png,unmotivated,2.5,fall,left,hard,,8.26077499999883,11.430733375000276,correct,3.11208829199677,fall,left,5.0,16.87970845900054,,450.0,,,
stim_set/hard-391.png,none.png,unmotivated,2.25,stand,right,hard,,16.88025958399885,19.55732329199964,incorrect,2.629575457998726,fall,left,5.0,24.109461833999376,,685.0,,,
stim_set/hard-564.png,none.png,unmotivated,3.75,stand,right,hard,,24.11003354200148,25.60572737500115,incorrect,1.4404915000013716,fall,left,5.0,32.03274370900181,,,,,
stim_set/hard-244.png,none.png,unmotivated,3.25,stand,right,hard,,32.03329704200223,35.78896916699887,incorrect,3.6984852920031694,fall,left,5.0,41.709829874998825,,,,,
stim_set/hard-334.png,none.png,unmotivated,2.0,stand,right,hard,,41.71046170900081,45.922408624999655,correct,4.162205708002148,stand,right,3.0,50.90748991700093,,,,,
stim_set/easy-vcom=1-87.png,none.png,unmotivated,3.0,fall,left,easy,,50.90800341700015,52.44731095899988,incorrect,1.4832536249996338,stand,right,2.0,58.90854212500199,,,,,
stim_set/easy-vcom=2-20.png,none.png,unmotivated,2.25,fall,left,easy,,58.909075792002106,60.447255499999294,correct,1.4865408750010831,fall,left,5.0,66.03739170900008,,,,,
stim_set/hard-599.png,none.png,unmotivated,3.0,stand,right,hard,,66.0379648340022,68.05718912500015,correct,1.9784253340003488,stand,right,1.0,74.23642337500132,,,,,
stim_set/easy-vcom=1-73.png,none.png,unmotivated,2.5,fall,left,easy,,74.23703179199947,76.84726041700195,correct,2.564078999999765,fall,left,5.0,82.37525404199914,,,,,
stim_set/easy-344.png,none.png,unmotivated,4.0,stand,right,easy,,82.37581191700156,85.46402729200055,incorrect,3.0368906670009888,fall,left,3.0,92.65094183399923,,,,,
stim_set/easy-538.png,none.png,unmotivated,2.5,stand,right,easy,,92.6514915000007,95.27208225000143,correct,2.56925420799962,stand,right,5.0,100.05428945899985,,,,,
stim_set/hard-78.png,none.png,unmotivated,2.25,stand,right,hard,,100.05493158399986,101.55707429199902,incorrect,1.4538010000032957,fall,left,5.0,106.42920575000244,,,,,
stim_set/easy-280.png,none.png,unmotivated,3.0,stand,right,easy,,106.42992208400028,108.19724091700121,correct,1.71532145799938,stand,right,5.0,114.21884475000117,,,,,
stim_set/easy-vcom=3-38.png,none.png,unmotivated,2.5,fall,left,easy,,114.21953266700079,115.53896204199918,correct,1.2626654999985476,fall,left,5.0,120.3033532920017,,,,,
stim_set/hard-vcom=3-82.png,none.png,unmotivated,2.25,fall,left,hard,,120.30388412500179,121.65705133400115,correct,1.3029991250004969,fall,left,5.0,126.20457329200144,,,,,
stim_set/hard-vcom=4-23.png,none.png,unmotivated,2.5,fall,left,hard,,126.20510583400028,128.36394966700027,correct,2.1071056250002584,fall,left,4.0,133.17487800000163,,,,,
stim_set/easy-vcom=4-69.png,none.png,unmotivated,2.25,fall,left,easy,,133.17541616699964,135.223735167001,correct,1.9975385420002567,fall,left,5.0,140.2763699999996,,,,,
stim_set/hard-vcom=3-34.png,none.png,unmotivated,2.0,fall,left,hard,,140.27693287500006,141.73069045900047,correct,1.396247417000268,fall,left,5.0,146.1629691670023,,,,,
stim_set/hard-492.png,none.png,unmotivated,2.0,stand,right,hard,,146.16350366700138,148.13058437500152,incorrect,1.9147038749979401,fall,left,5.0,152.4587109999993,,,,,
stim_set/hard-600.png,none.png,unmotivated,2.5,stand,right,hard,,152.45925041699957,154.98891775000084,incorrect,2.484913915999641,fall,left,5.0,159.695273166999,,,,,
stim_set/hard-316.png,none.png,unmotivated,2.0,stand,right,hard,,159.695887959002,160.90522691700244,incorrect,1.1578949590002594,fall,left,5.0,165.21904654199898,,,,,
stim_set/hard-vcom=2-20.png,none.png,unmotivated,2.25,fall,left,hard,,165.21969495899975,166.86422041699916,correct,1.5882666670004255,fall,left,5.0,171.4527052090016,,,,,
stim_set/easy-vcom=4-126.png,none.png,unmotivated,2.5,fall,left,easy,,171.45324062500003,174.0819967919997,correct,2.5787500829974306,fall,left,5.0,178.8151973339991,,,,,
stim_set/easy-77.png,none.png,unmotivated,3.0,stand,right,easy,,178.81571683400037,180.60548679199928,correct,1.7368130830000157,stand,right,4.0,186.2752422920021,,,,,
stim_set/hard-vcom=3-110.png,none.png,unmotivated,3.0,fall,left,hard,,186.27579787500144,187.41528120899966,correct,1.0981224160022975,fall,left,5.0,192.5314642920021,,,,,
stim_set/easy-vcom=2-3.png,none.png,unmotivated,4.0,fall,left,easy,,192.532013,194.556979459001,correct,1.9769014999983483,fall,left,4.0,201.52315787499901,,,,,
stim_set/hard-vcom=2-100.png,none.png,unmotivated,3.25,fall,left,hard,,201.52369399999958,202.432310917,correct,0.8618463750026422,fall,left,4.0,208.57268554199985,,,,,
stim_set/hard-367.png,none.png,unmotivated,2.5,stand,right,hard,,208.5732189590017,213.6389140419997,incorrect,,,,,218.32272220899898,,,,,
stim_set/easy-vcom=3-15.png,none.png,unmotivated,2.25,fall,left,easy,,218.3233317090016,219.24892125000042,correct,0.8776348749997851,fall,left,5.0,223.85227087500243,,,,,
stim_set/hard-402.png,none.png,unmotivated,2.5,stand,right,hard,,223.8528322500024,224.83238258400158,incorrect,0.9297352079993288,fall,left,5.0,229.53463737499987,,,,,
stim_set/hard-82.png,none.png,unmotivated,3.75,stand,right,hard,,229.5351851250016,232.14715012500164,incorrect,2.5564559589984133,fall,left,5.0,238.14436616700183,,,,,
stim_set/hard-vcom=1-3.png,none.png,unmotivated,2.75,fall,left,hard,,238.1449766670012,239.2802088339995,correct,1.0839481660004822,fall,left,5.0,245.02491179199933,,,,,
stim_set/hard-14.png,none.png,unmotivated,3.25,stand,right,hard,,245.02547470900024,246.36534912500062,incorrect,1.2997423330016318,fall,left,5.0,251.8853642920003,,,,,
stim_set/hard-345.png,none.png,unmotivated,2.5,stand,right,hard,,251.88600245899946,254.55655775000199,incorrect,2.6241014580009505,fall,left,4.0,259.95107858399933,,,,,
stim_set/easy-13.png,none.png,unmotivated,2.5,stand,right,easy,,259.95163491700083,263.073831583999,correct,3.071716708000168,stand,right,4.0,267.9503862919992,,,,,
stim_set/hard-382.png,none.png,unmotivated,2.75,stand,right,hard,,267.9509378750008,271.42333362499994,incorrect,3.433035583002493,fall,left,3.0,277.2563057920015,,,,,
stim_set/hard-549.png,none.png,unmotivated,3.25,stand,right,hard,,277.256941959,279.7220094170006,incorrect,2.412495583001146,fall,left,4.0,285.58843458400224,,,,,
stim_set/hard-vcom=3-7.png,none.png,unmotivated,2.75,fall,left,hard,,285.5889481250015,286.980230125002,correct,1.3390033329997095,fall,left,3.0,292.47218775000147,,,,,
stim_set/hard-vcom=4-92.png,none.png,unmotivated,2.75,fall,left,hard,,292.4727414170011,294.8387118339997,correct,2.3100745000010647,fall,left,5.0,300.53699008400145,300.5373938340017,,,,
stim_set/easy-vcom=1-145.png,none.png,unmotivated,3.75,fall,left,easy,313.4263674169997,313.4271506670011,315.5486018750016,correct,2.0730783340004564,fall,left,4.0,321.56049945899935,,,,,
stim_set/hard-40.png,none.png,unmotivated,3.0,stand,right,hard,,321.5610536250024,325.05526566700064,incorrect,3.4393920000002254,fall,left,4.0,330.3697600000013,,,,,
stim_set/hard-21.png,none.png,unmotivated,4.0,stand,right,hard,,330.3703197089999,332.16370587500205,incorrect,1.7434117500015418,fall,left,4.0,338.57825287500236,,,,,
stim_set/hard-vcom=2-16.png,none.png,unmotivated,2.5,fall,left,hard,,338.5787966249992,340.42192375000013,correct,1.7856540409993609,fall,left,5.0,345.16590825000094,,,,,
stim_set/hard-280.png,none.png,unmotivated,2.25,stand,right,hard,,345.1664588339991,348.41528166699936,incorrect,3.1990184169990243,fall,left,4.0,353.54904483400236,,,,,
stim_set/easy-vcom=3-74.png,none.png,unmotivated,2.25,fall,left,easy,,353.54960270900114,354.9637026669989,correct,1.3599585840020154,fall,left,5.0,359.5163749170024,,,,,
stim_set/easy-vcom=2-147.png,none.png,unmotivated,3.25,fall,left,easy,,359.51691154199943,360.9801996249989,correct,1.408896666001965,fall,left,5.0,366.6529875840024,,,,,
stim_set/hard-vcom=1-50.png,none.png,unmotivated,3.75,fall,left,hard,,366.6538102500017,369.7065745420005,correct,3.001012000000628,fall,left,5.0,375.849059209002,,,,,
stim_set/easy-590.png,none.png,unmotivated,2.5,stand,right,easy,,375.8495755420008,378.723097459002,correct,2.8216570830009005,stand,right,5.0,383.91003312500106,,,,,
stim_set/easy-vcom=4-19.png,none.png,unmotivated,3.25,fall,left,easy,,383.91066991700063,385.6551875840014,correct,1.6883768330008024,fall,left,4.0,391.1396110000023,,,,,
stim_set/easy-164.png,none.png,unmotivated,4.0,stand,right,easy,,391.14017166700063,394.23195008400216,correct,3.0413522919989187,stand,right,4.0,400.48265845900096,,,,,
stim_set/hard-49.png,none.png,unmotivated,2.25,stand,right,hard,,400.48343487500085,401.96457645900233,incorrect,1.428425750000315,fall,left,4.0,407.1477995419991,,,,,
stim_set/hard-vcom=1-130.png,none.png,unmotivated,2.25,fall,left,hard,,407.1483396250005,409.798610959002,incorrect,2.603141333998792,stand,right,4.0,414.828113042,,,,,
stim_set/hard-vcom=3-145.png,none.png,unmotivated,2.75,fall,left,hard,,414.82864266700204,418.04031533400115,correct,3.171643249999761,fall,left,4.0,423.4717918339993,,,,,
stim_set/easy-vcom=2-94.png,none.png,unmotivated,2.75,fall,left,easy,,423.47235450000153,426.23849633400096,correct,2.7139688749994093,fall,left,3.0,432.3209143339991,,,,,
stim_set/hard-321.png,none.png,unmotivated,2.25,stand,right,hard,,432.3215414590013,433.99033649999916,incorrect,1.6240488750008808,fall,left,5.0,439.3319041670002,,,,,
stim_set/hard-2.png,none.png,unmotivated,2.75,stand,right,hard,,439.3324387920002,441.171714084001,incorrect,1.784599624999828,fall,left,5.0,446.7448211670017,,,,,
stim_set/hard-vcom=2-110.png,none.png,unmotivated,3.0,fall,left,hard,,446.7453476250012,450.40651583400177,correct,3.6169347499999285,fall,left,3.0,456.25807204200106,,,,,
stim_set/hard-7.png,none.png,unmotivated,2.25,stand,right,hard,,456.2586356669999,458.97168604200124,incorrect,2.657086333001644,fall,left,4.0,463.74851687499915,,,,,
stim_set/hard-570.png,none.png,unmotivated,2.25,stand,right,hard,,463.7491632919992,466.51321775000173,incorrect,2.706682291998732,fall,left,5.0,471.1877111249996,,,,,
stim_set/hard-vcom=2-137.png,none.png,unmotivated,3.0,fall,left,hard,,471.18828954200217,474.74674320900164,correct,3.5081592499991534,fall,left,4.0,480.37798225000006,,,,,
stim_set/hard-177.png,none.png,unmotivated,2.0,stand,right,hard,,480.37857670900115,482.2231681670018,incorrect,1.802890041999489,fall,left,4.0,486.7460066669992,,,,,
stim_set/hard-vcom=1-30.png,none.png,unmotivated,3.75,fall,left,hard,,486.74655274999895,490.8550323340023,correct,4.057776208999712,fall,left,4.0,497.34464337499963,,,,,
stim_set/hard-vcom=3-142.png,none.png,unmotivated,3.25,fall,left,hard,,497.3453826670011,500.44670112500165,correct,3.0446515000003282,fall,left,4.0,506.2286099170015,,,,,
stim_set/hard-vcom=4-147.png,none.png,unmotivated,2.25,fall,left,hard,,506.2291724589994,509.84806525000016,correct,3.5670978339985595,fall,left,5.0,514.3327910000007,,,,,
stim_set/hard-vcom=4-139.png,none.png,unmotivated,4.0,fall,left,hard,,514.333283709002,515.8812103340024,correct,1.5024118750006892,fall,left,5.0,522.3624065840013,,,,,
stim_set/hard-vcom=2-147.png,none.png,unmotivated,2.5,fall,left,hard,,522.3632267920002,524.0813715000004,correct,1.6768712080011028,fall,left,5.0,528.8700524590022,,,,,
stim_set/easy-411.png,none.png,unmotivated,4.0,stand,right,easy,,528.8707334999998,533.0132245419991,incorrect,4.085771250000107,fall,left,5.0,539.4104085420004,,,,,
stim_set/hard-vcom=4-142.png,none.png,unmotivated,4.0,fall,left,hard,,539.4109672920022,543.696584917001,incorrect,4.2322749590020985,stand,right,3.0,550.0338377920017,,,,,
stim_set/hard-369.png,none.png,unmotivated,2.0,stand,right,hard,,550.034511875001,553.687958999999,correct,3.60729849999916,stand,right,4.0,557.8746019589997,,,,,
stim_set/hard-214.png,none.png,unmotivated,3.25,stand,right,hard,,557.8751706250006,559.0733352499991,incorrect,1.1477512079982262,fall,left,5.0,564.6195281670007,,,,,
stim_set/hard-441.png,none.png,unmotivated,2.5,stand,right,hard,,564.620059249999,569.6799110419997,incorrect,,,,,574.0345874590022,,,,,
stim_set/hard-vcom=4-80.png,none.png,unmotivated,3.75,fall,left,hard,,574.035194250002,575.2049691249995,correct,1.1123377910007548,fall,left,5.0,581.1837994590022,,,,,
stim_set/hard-132.png,none.png,unmotivated,3.75,stand,right,hard,,581.1844305420017,582.9215016670023,incorrect,1.685483999997814,fall,left,4.0,589.3039087090001,,,,,
stim_set/hard-566.png,none.png,unmotivated,3.75,stand,right,hard,,589.3045353340021,592.7964550420003,incorrect,3.436276332999114,fall,left,5.0,598.8009705000004,,,,,
stim_set/easy-vcom=1-12.png,none.png,unmotivated,2.0,fall,left,easy,,598.8017232919993,600.7464775840018,correct,1.8885302909984605,fall,left,5.0,604.9855316249996,,,,,
stim_set/hard-vcom=1-95.png,none.png,unmotivated,2.0,fall,left,hard,,604.9861201250022,609.621496374999,correct,4.583052916001178,fall,left,5.0,614.3784930000003,,,,,
stim_set/hard-vcom=1-136.png,none.png,unmotivated,2.5,fall,left,hard,,614.3791089590012,616.5631638750019,correct,2.132434916999045,fall,left,5.0,621.7659654589987,,,,,
stim_set/hard-182.png,none.png,unmotivated,4.0,stand,right,hard,,621.7665750840024,625.0146781250005,incorrect,3.2082679580016698,fall,left,5.0,631.6424719999994,,,,,
stim_set/hard-91.png,none.png,unmotivated,2.25,stand,right,hard,,631.6430222090022,634.0464637090008,incorrect,2.349762208999892,fall,left,3.0,638.7475648340005,638.7479018340018,,,,
stim_set/hard-391.png,stand.png,cooperation,2.75,stand,right,hard,0.00015054200048325583,0.0007436669984599575,6.738751291999506,incorrect,1.6966341250008554,fall,left,4.0,12.748647041997176,,,,1.0137327919983363,
stim_set/hard-382.png,fall.png,cooperation,3.75,stand,right,hard,,12.749390917000712,20.248559042000124,incorrect,2.4721053749999555,fall,left,5.0,27.132049249998087,,,,13.75953141699938,
stim_set/easy-vcom=3-38.png,stand.png,cooperation,2.25,fall,left,easy,,27.13261158399837,34.298153166997515,correct,2.127953916999104,fall,left,4.0,39.19854862499777,,,,28.143583958997628,
stim_set/hard-549.png,stand.png,cooperation,2.25,stand,right,hard,,39.199153749999816,47.28157779200046,incorrect,3.0471811249990424,fall,left,4.0,52.20726458399804,,,,40.20998545899785,
stim_set/hard-492.png,fall.png,cooperation,2.25,stand,right,hard,,52.20782962500015,59.080186291997954,incorrect,1.8326641669991661,fall,left,5.0,64.0628391249993,,,,53.218068958998636,
stim_set/hard-2.png,stand.png,cooperation,3.25,stand,right,hard,,64.0634233339988,71.14895658399837,incorrect,2.0496322910003077,fall,left,5.0,77.15921083399735,,,,65.07337175000066,
stim_set/hard-334.png,fall.png,cooperation,2.75,stand,right,hard,,77.15993629199875,83.65499520899904,incorrect,1.4591539579996606,fall,left,5.0,88.70598808399882,,,,78.16957462500069,
stim_set/easy-vcom=1-12.png,stand.png,cooperation,2.25,fall,left,easy,,88.70655762499882,95.29857845899824,correct,1.5544659590013907,fall,left,5.0,100.10208429200064,,,,89.71697008399859,
stim_set/easy-280.png,fall.png,cooperation,3.0,stand,right,easy,,100.10262270900057,107.5652836249974,correct,2.4291188749994035,stand,right,5.0,113.19602658399891,,,,101.11290908400042,
stim_set/hard-441.png,fall.png,cooperation,2.0,stand,right,hard,,113.196570666998,121.43123362500046,incorrect,3.2031481660014838,fall,left,4.0,126.18034033399816,,,,114.2070683339989,
stim_set/hard-321.png,stand.png,cooperation,2.25,stand,right,hard,,126.18086891699932,132.60479779199886,incorrect,1.3858822500005772,fall,left,4.0,138.09729941700058,,,,127.19184458399832,
stim_set/hard-566.png,fall.png,cooperation,3.25,stand,right,hard,,138.09784724999918,146.42993662499794,incorrect,3.288976583000476,fall,left,4.0,152.4630482499997,,,,139.1078185419974,
stim_set/hard-82.png,stand.png,cooperation,2.25,stand,right,hard,,152.46368470900052,160.13972524999917,incorrect,2.640036125001643,fall,left,4.0,164.82982691699723,,,,153.47403574999768,
stim_set/hard-vcom=4-139.png,stand.png,cooperation,2.75,fall,left,hard,,164.8304258749995,171.2068350419977,correct,1.342588457999227,fall,left,5.0,176.2099836669986,,,,165.84095225000056,
stim_set/hard-vcom=1-50.png,fall.png,cooperation,4.0,fall,left,hard,,176.21071808399935,184.48806637499732,correct,3.235228333000123,fall,left,4.0,190.92403162499974,,,,177.2207335419989,
stim_set/hard-vcom=1-3.png,fall.png,cooperation,2.25,fall,left,hard,,190.92457829200063,197.3561295420004,correct,1.3977211250021355,fall,left,5.0,202.10237874999802,,,,191.93500433399825,
stim_set/hard-91.png,stand.png,cooperation,3.75,stand,right,hard,,202.10294016699845,209.22972658399883,incorrect,2.0865874589981104,fall,left,4.0,215.33126724999968,,,,203.1137257089977,
stim_set/hard-367.png,stand.png,cooperation,3.75,stand,right,hard,,215.33183537500008,223.61303537499768,correct,3.242742083002668,stand,right,3.0,230.61180304200025,,,,216.34229308399878,
stim_set/easy-vcom=4-19.png,fall.png,cooperation,2.25,fall,left,easy,,230.61235387499985,237.6730709589974,correct,2.02304358299807,fall,left,4.0,242.64604554199832,,,,231.62305970899982,
stim_set/hard-vcom=3-34.png,stand.png,cooperation,3.25,fall,left,hard,,242.6466582920002,249.3545330419984,correct,1.6644701670011273,fall,left,5.0,255.47041337499832,,,,243.6577472499994,
stim_set/hard-vcom=3-110.png,stand.png,cooperation,2.0,fall,left,hard,,255.47097508399747,262.14771566700074,correct,1.6490878750009867,fall,left,5.0,266.47605408399977,,,,256.4815818749994,
stim_set/hard-vcom=3-145.png,fall.png,cooperation,3.75,fall,left,hard,,266.476829291998,274.7806383749994,correct,3.2773640410014195,fall,left,5.0,280.746482999999,,,,267.486944166998,
stim_set/easy-411.png,stand.png,cooperation,2.0,stand,right,easy,,280.7470355839978,289.4045596249998,incorrect,3.6150038329979,fall,left,3.0,294.23542841699964,,,,281.75727495899986,
stim_set/hard-244.png,stand.png,cooperation,2.5,stand,right,hard,,294.2359844999992,301.06275204199846,incorrect,1.7841777499997988,fall,left,5.0,305.84014150000075,,,,295.2466058749997,
stim_set/easy-590.png,fall.png,cooperation,4.0,stand,right,easy,,305.8407784999981,312.69621483399897,correct,1.8126528329994471,stand,right,4.0,319.59549845899886,,,,306.8511247919996,
stim_set/hard-402.png,stand.png,cooperation,3.75,stand,right,hard,,319.5960246249997,326.2712427919978,incorrect,1.6335327090018836,fall,left,5.0,332.27369304199965,,,,320.6064627089981,
stim_set/hard-vcom=4-23.png,fall.png,cooperation,3.0,fall,left,hard,,332.27430900000036,338.69619466699805,correct,1.383307166001032,fall,left,5.0,343.95598804199835,,,,333.28444354199746,
stim_set/hard-vcom=1-130.png,stand.png,cooperation,2.5,fall,left,hard,,343.95671883400064,350.61408549999766,correct,1.6253085839998676,fall,left,5.0,355.5358219169975,,,,344.96692416699807,
stim_set/hard-vcom=2-147.png,stand.png,cooperation,2.5,fall,left,hard,,355.53635474999834,361.85453154199786,correct,1.2858874580015254,fall,left,5.0,366.8080353749974,,,,356.5467314999987,
stim_set/hard-vcom=4-142.png,fall.png,cooperation,2.25,fall,left,hard,,366.80864345900045,376.30425662500056,incorrect,4.457983167001657,stand,right,4.0,381.56549425000054,,,,367.81841799999887,
stim_set/easy-vcom=3-15.png,stand.png,cooperation,3.0,fall,left,easy,,381.56604916699865,389.362734167,correct,2.7578454169997717,fall,left,3.0,394.6518167089998,,,,382.57652108400003,
stim_set/hard-316.png,stand.png,cooperation,2.5,stand,right,hard,,394.6524623749974,403.0043088749989,incorrect,3.3141627500008326,fall,left,5.0,408.3677667089978,,,,395.66305104199995,
stim_set/easy-vcom=4-126.png,stand.png,cooperation,2.5,fall,left,easy,,408.3683267089982,415.230820124998,correct,1.8248553749981509,fall,left,5.0,420.40029683399916,,,,409.37888566699996,
stim_set/easy-13.png,fall.png,cooperation,3.25,stand,right,easy,,420.4008422919978,428.904723708998,incorrect,3.461542000000918,fall,left,2.0,436.30330437500015,,,,421.41075562499833,
stim_set/easy-vcom=3-142.png,fall.png,cooperation,3.25,fall,left,easy,,436.30395233399764,445.1540542090006,correct,3.8089782499992,fall,left,3.0,451.99870162499786,,,,437.3148767089988,
stim_set/hard-280.png,stand.png,cooperation,3.25,stand,right,hard,,451.99923995899735,459.3456320419973,incorrect,2.304709666001145,fall,left,4.0,465.8395716669984,,,,453.00999687500007,
stim_set/easy-vcom=1-145.png,stand.png,cooperation,3.75,fall,left,easy,,465.8402007090008,472.17060745900017,correct,1.2899702499998966,fall,left,5.0,478.1775729589972,,,,466.85099350000013,
stim_set/hard-vcom=4-75.png,fall.png,cooperation,2.0,fall,left,hard,,478.1781536669987,485.47930066700064,correct,2.259458208001888,fall,left,5.0,489.8510795420007,,,,479.188117624999,
stim_set/hard-vcom=2-100.png,fall.png,cooperation,4.0,fall,left,hard,,489.8516379590001,497.55424562500053,correct,2.6643965830007796,fall,left,5.0,503.89120754199763,,,,490.8613824999993,
stim_set/hard-177.png,stand.png,cooperation,2.0,stand,right,hard,,503.89174154200015,511.04739129199885,incorrect,2.1284196660017187,fall,left,5.0,515.7801186670004,515.7804617919974,,,504.9021937090001,
stim_set/easy-vcom=2-3.png,fall.png,cooperation,3.75,fall,left,easy,526.5953344169975,526.5960456249994,535.464287499999,incorrect,3.831657832997735,stand,right,5.0,542.1304338339978,,,,527.6073105840005,
stim_set/hard-vcom=4-92.png,fall.png,cooperation,2.25,fall,left,hard,,542.1309955420002,548.5625094169991,correct,1.388127041998814,fall,left,5.0,553.2290009589997,,,,543.1412330419989,
stim_set/easy-164.png,stand.png,cooperation,3.75,stand,right,easy,,553.2295957089991,559.8291787499984,correct,1.5567100840016792,stand,right,5.0,565.865992791998,,,,554.2398531670005,
stim_set/hard-vcom=1-136.png,stand.png,cooperation,2.75,fall,left,hard,,565.8665515840003,572.5624721669993,correct,1.6577233329990122,fall,left,5.0,578.0485175840004,,,,566.8764589589991,
stim_set/easy-538.png,fall.png,cooperation,2.5,stand,right,easy,,578.0490399169976,584.8637127919974,correct,1.7839275830010592,stand,right,5.0,589.5910816249998,,,,579.0589235839981,
stim_set/hard-vcom=3-7.png,stand.png,cooperation,2.75,fall,left,hard,,589.5916501249994,595.7305180000002,correct,1.1051828329982527,fall,left,5.0,600.7134447919998,,,,590.6023695839976,
stim_set/easy-vcom=1-73.png,fall.png,cooperation,2.5,fall,left,easy,,600.7141863340003,607.0540256249988,correct,1.3074037919977854,fall,left,5.0,611.7999529589979,,,,601.7244322089973,
stim_set/hard-vcom=3-82.png,stand.png,cooperation,2.5,fall,left,hard,,611.8005263749983,617.7040560419991,correct,0.8623757499990461,fall,left,5.0,622.4712609999988,,,,612.8110871669996,
stim_set/hard-14.png,stand.png,cooperation,2.5,stand,right,hard,,622.47185025,629.4723994999986,incorrect,1.972802833002788,fall,left,5.0,634.3523100419989,,,,623.4822674169991,
stim_set/hard-369.png,fall.png,cooperation,2.5,stand,right,hard,,634.3529366669973,643.3288378750002,incorrect,3.944086625000637,fall,left,4.0,648.1355417919985,,,,635.3630789999988,
stim_set/easy-vcom=4-69.png,fall.png,cooperation,4.0,fall,left,easy,,648.1361104999996,654.6872879999974,correct,1.5096384160024172,fall,left,5.0,660.9397131669975,,,,649.1460294999998,
stim_set/hard-vcom=2-20.png,fall.png,cooperation,2.0,fall,left,hard,,660.940456417,667.7207303340001,correct,1.7382832080002115,fall,left,5.0,671.77162675,,,,661.9503589169981,
stim_set/hard-vcom=3-142.png,stand.png,cooperation,4.0,fall,left,hard,,671.7721820000006,678.9888890420008,correct,2.1792297920001147,fall,left,4.0,686.1163782090008,,,,672.7824074169985,
stim_set/hard-7.png,fall.png,cooperation,2.75,stand,right,hard,,686.1169398749988,693.0806035839996,incorrect,1.925163625001005,fall,left,3.0,699.0982133340002,,,,687.1273653339995,
stim_set/hard-132.png,stand.png,cooperation,3.0,stand,right,hard,,699.0987810419974,707.1453288339981,incorrect,3.008371749998332,fall,left,4.0,713.091157625,,,,700.1091694169991,
stim_set/hard-vcom=4-147.png,fall.png,cooperation,3.25,fall,left,hard,,713.0916934169983,719.2804662919989,correct,1.1511039170000004,fall,left,5.0,724.9496005839974,,,,714.1018080419998,
stim_set/hard-vcom=1-30.png,stand.png,cooperation,2.5,fall,left,hard,,724.9502154170004,730.9554108339979,correct,0.972916458002146,fall,left,5.0,735.7033983750008,,,,725.9609762919972,
stim_set/easy-vcom=1-87.png,fall.png,cooperation,2.5,fall,left,easy,,735.7039823339983,743.1290253749976,correct,2.3834072499994363,fall,left,4.0,748.4950892499983,,,,736.7142329589988,
stim_set/easy-vcom=3-74.png,fall.png,cooperation,2.25,fall,left,easy,,748.4956480000002,755.0053171670006,correct,1.4734375840016585,fall,left,5.0,759.4688373749997,,,,749.5055692919997,
stim_set/easy-vcom=2-20.png,stand.png,cooperation,4.0,fall,left,easy,,759.4694133339981,766.2204910420004,correct,1.7132643750010177,fall,left,4.0,772.8114121250002,,,,760.4794712090005,
stim_set/hard-570.png,fall.png,cooperation,2.0,stand,right,hard,,772.8119879169972,780.2622079169996,incorrect,2.4073397909996856,fall,left,5.0,784.5706036249976,,,,773.8220316249973,
stim_set/hard-78.png,fall.png,cooperation,2.25,stand,right,hard,,784.5712096669995,791.3954459589986,incorrect,1.7839612080024383,fall,left,4.0,796.6849512089975,,,,785.5814965419995,
stim_set/hard-40.png,stand.png,cooperation,3.0,stand,right,hard,,796.685487458999,804.771423416998,incorrect,3.050526417002402,fall,left,4.0,810.3948043749988,,,,797.6957427919988,
stim_set/hard-vcom=2-16.png,stand.png,cooperation,2.25,fall,left,hard,,810.3953593749976,817.1787205,correct,1.7393549580010583,fall,left,4.0,821.5090977500003,,,,811.4061557919995,
stim_set/hard-599.png,fall.png,cooperation,2.0,stand,right,hard,,821.5098278749974,828.3287587499982,incorrect,1.786065457999939,fall,left,4.0,832.7713111669983,,,,822.5205407499997,
stim_set/hard-vcom=2-137.png,fall.png,cooperation,2.25,fall,left,hard,,832.7720241669995,839.8202889169987,correct,2.0119702080010033,fall,left,4.0,844.4280838749983,,,,833.7824612500008,
stim_set/hard-600.png,fall.png,cooperation,3.0,stand,right,hard,,844.4287196250008,852.3206030420006,incorrect,2.8592378339999414,fall,left,4.0,857.507963666998,,,,845.4392217919993,
stim_set/hard-182.png,stand.png,cooperation,2.75,stand,right,hard,,857.5085267499999,865.2636194999977,incorrect,2.727900458001386,fall,left,3.0,871.0092424590002,,,,858.5189632500004,
stim_set/easy-vcom=2-94.png,fall.png,cooperation,4.0,fall,left,easy,,871.0099892500003,878.0719990420002,correct,2.028956541998923,fall,left,5.0,884.6385442499995,,,,872.0201210419983,
stim_set/easy-344.png,stand.png,cooperation,2.75,stand,right,easy,,884.6392281669977,892.0636144169985,correct,2.391669708002155,stand,right,4.0,897.6733216249995,,,,885.649820958999,
stim_set/easy-vcom=3-74.png,fall.png,cooperation,2.25,fall,left,easy,,897.6738643339995,903.7284756249974,correct,1.0132716670013906,fall,left,5.0,908.2453517920004,,,,898.6844436249994,
stim_set/hard-vcom=2-110.png,stand.png,cooperation,2.5,fall,left,hard,,908.2459173749994,915.0202652919979,correct,1.7369208750023972,fall,left,5.0,919.7824926249997,,,,909.2567799169992,
stim_set/hard-21.png,fall.png,cooperation,2.5,stand,right,hard,,919.7830797089991,926.0787330419987,incorrect,1.2580315419982069,fall,left,5.0,930.814769875,,,,920.7934977499973,
stim_set/easy-77.png,stand.png,cooperation,2.5,stand,right,easy,,930.8153055000002,937.0369819169972,correct,1.182777250000072,stand,right,5.0,941.7822529589977,,,,931.8259227919988,
stim_set/hard-214.png,fall.png,cooperation,3.25,stand,right,hard,,941.7828270839999,947.9620149999972,incorrect,1.13647754199701,fall,left,5.0,953.5814053339999,,,,942.7932297499974,
stim_set/hard-49.png,stand.png,cooperation,3.0,stand,right,hard,,953.5819695419997,961.3967528339999,incorrect,2.7765888329995505,fall,left,5.0,966.8510940839988,,,,954.5924673339978,
stim_set/hard-345.png,fall.png,cooperation,2.25,stand,right,hard,,966.8516964589979,976.0785314169988,incorrect,4.189144084000873,fall,left,4.0,981.0216653339993,,,,967.8618185419983,
stim_set/hard-vcom=1-95.png,fall.png,cooperation,2.5,fall,left,hard,,981.0222314169987,987.6202637499993,correct,1.5603295420005452,fall,left,4.0,992.2639704589999,,,,982.0323926249984,
stim_set/hard-564.png,stand.png,cooperation,2.25,stand,right,hard,,992.2645265839999,998.9699843339986,incorrect,1.6642316670004218,fall,left,5.0,1003.4688413749973,,,,993.2748987919986,
stim_set/easy-vcom=2-147.png,stand.png,cooperation,3.0,fall,left,easy,,1003.469588459,1010.3952702089991,correct,1.8848455000006648,fall,left,5.0,1015.4510042919974,1015.451331166998,,,1004.4801279999992,
stim_set/hard-vcom=4-80.png,fall.png,cooperation,4.0,fall,left,hard,0.00011637499846983701,0.0007277090007846709,6.143018541999481,correct,1.0984772500014515,fall,left,5,12.427347000000736,,,,1.0118865000004007,
stim_set/hard-vcom=1-136.png,fall.png,competition,3.25,fall,left,hard,,12.427915249998478,19.34479216699765,correct,1.883856458000082,fall,left,5,24.88588041699768,,,,13.437923834000685,
stim_set/hard-369.png,stand.png,competition,3.0,stand,right,hard,,24.886513999997987,32.13677299999836,correct,2.2219608330015035,stand,right,4,37.444106041999476,,,,25.897478209000838,
stim_set/hard-vcom=2-147.png,fall.png,competition,2.0,fall,left,hard,,37.444647542000894,44.684720875000494,correct,2.207580958998733,fall,left,5,49.10817062500064,,,,38.454983249997895,
stim_set/hard-vcom=2-20.png,stand.png,competition,3.75,fall,left,hard,,49.108712000001105,55.384697583998786,correct,1.233804292001878,fall,left,5,61.44248216699998,,,,50.11918670899831,
stim_set/easy-vcom=1-73.png,fall.png,competition,4.0,fall,left,easy,,61.44313816700014,68.17761504200098,correct,1.7073452500007988,fall,left,5,74.35520883400022,,,,62.453547708999395,
stim_set/hard-132.png,stand.png,competition,2.75,stand,right,hard,,74.35577591699985,82.51117533399884,incorrect,3.1224042499998177,fall,left,4,88.49854979199881,,,,75.36560995900072,
stim_set/easy-vcom=2-20.png,fall.png,competition,3.0,fall,left,easy,,88.49936562500079,95.13656670899945,correct,1.602619457997207,fall,left,5,100.7155347500011,,,,89.51032750000013,
stim_set/hard-280.png,fall.png,competition,2.5,stand,right,hard,,100.71609249999892,109.02752283399968,incorrect,3.2742382920005184,fall,left,4,113.68756495900016,,,,101.72674587499932,
stim_set/hard-600.png,stand.png,competition,2.25,stand,right,hard,,113.6881988339992,120.85951679199934,incorrect,2.138938500000222,fall,left,5,125.62207220900018,,,,114.69855708400064,
stim_set/hard-334.png,stand.png,competition,3.25,stand,right,hard,,125.62269458399896,132.27803833399958,incorrect,1.6233840829991095,fall,left,4,138.357686542,,,,126.63319195900112,
stim_set/easy-vcom=1-12.png,stand.png,competition,2.75,fall,left,easy,,138.35823904199788,144.61952358399867,correct,1.2247684159992787,fall,left,5,149.81729737500063,,,,139.36831195899867,
stim_set/easy-vcom=2-147.png,fall.png,competition,2.5,fall,left,easy,,149.8178791249993,156.74296204200073,correct,1.8846663750009611,fall,left,5,161.66308408400073,,,,150.8282537499981,
stim_set/easy-590.png,stand.png,competition,4.0,stand,right,easy,,161.66365029200097,169.87755225,incorrect,3.1770685840019723,fall,left,4,176.43524087499827,,,,162.67350562499996,
stim_set/hard-91.png,stand.png,competition,2.0,stand,right,hard,,176.43581379199895,182.68448174999867,incorrect,1.2086117920007382,fall,left,4,187.01976550000109,,,,177.446555874998,
stim_set/hard-vcom=1-95.png,fall.png,competition,2.25,fall,left,hard,,187.02048670899967,193.4929893749977,correct,1.4343254589985008,fall,left,3,198.75825416699809,,,,188.03110116699827,
stim_set/hard-402.png,stand.png,competition,2.25,stand,right,hard,,198.75884433399915,204.65951645899986,incorrect,0.8592549160021008,fall,left,5,209.14204604199767,,,,199.76902866700038,
stim_set/hard-49.png,fall.png,competition,3.75,stand,right,hard,,209.1426645419997,215.61795145900032,incorrect,1.4321237500007555,fall,left,5,221.61009266700057,,,,210.15261583399842,
stim_set/easy-vcom=4-69.png,stand.png,competition,3.0,fall,left,easy,,221.6106504169984,228.05953750000117,correct,1.4069134999990638,fall,left,5,233.40319495899894,,,,222.62090841700046,
stim_set/easy-vcom=3-38.png,fall.png,competition,2.5,fall,left,easy,,233.40374175000034,240.259520874999,correct,1.8142692080000415,fall,left,5,245.07946625000113,,,,234.41369441699862,
stim_set/hard-vcom=3-7.png,stand.png,competition,2.25,fall,left,hard,,245.0800524999977,250.97631587499927,correct,0.8581900419994781,fall,left,5,255.6614988750007,,,,246.09038791700004,
stim_set/easy-vcom=3-142.png,fall.png,competition,2.5,fall,left,easy,,255.662084167001,263.0342228339978,correct,2.331875542000489,fall,left,5,267.85533433399905,,,,256.67214383399914,
stim_set/hard-345.png,fall.png,competition,3.25,stand,right,hard,,267.85590349999984,275.6512154589982,incorrect,2.7572642089980945,fall,left,5,281.2292686670007,,,,268.8658335,
stim_set/easy-164.png,stand.png,competition,2.5,stand,right,easy,,281.22986799999853,288.40943883399814,correct,2.1364019159991585,stand,right,4,293.2884385420002,,,,282.2405501249996,
stim_set/hard-2.png,fall.png,competition,2.75,stand,right,hard,,293.2889955419996,299.50288608399933,incorrect,1.1784802910005965,fall,left,5,304.4736300000004,,,,294.29902691700045,
stim_set/hard-vcom=4-75.png,stand.png,competition,3.25,fall,left,hard,,304.47424341700025,310.71965099999943,correct,1.2081137079985638,fall,left,5,316.2940667090006,,,,305.48475566699926,
stim_set/hard-40.png,stand.png,competition,2.25,stand,right,hard,,316.2947083750005,322.90277758400043,incorrect,1.5722072089993162,fall,left,5,327.2767308750008,,,,317.30500974999813,
stim_set/hard-vcom=2-100.png,stand.png,competition,2.75,fall,left,hard,,327.277274125001,333.45119079199867,correct,1.1347795410001709,fall,left,5,338.4343233340005,,,,328.2876729589989,
stim_set/hard-vcom=3-145.png,fall.png,competition,4.0,fall,left,hard,,338.4348687499987,345.00121574999866,correct,1.5339307089998329,fall,left,5,351.24383545899764,,,,339.4447317919985,
stim_set/hard-82.png,stand.png,competition,2.25,stand,right,hard,,351.24434945900066,358.0274202090004,incorrect,1.7477793750003912,fall,left,5,362.5660475420009,,,,352.2545233339988,
stim_set/easy-vcom=2-3.png,fall.png,competition,2.5,fall,left,easy,,362.56661058399914,370.77825524999935,correct,3.1761578749974433,fall,left,4,375.77532070899906,,,,363.57672399999865,
stim_set/hard-566.png,fall.png,competition,3.75,stand,right,hard,,375.775941625001,381.8609933339976,incorrect,1.046716834000108,fall,left,5,387.94626187500035,,,,376.78652800000054,
stim_set/hard-214.png,fall.png,competition,2.0,stand,right,hard,,387.9468316249986,393.8759914170005,incorrect,0.8874557499984803,fall,left,5,398.1152890839985,,,,388.95673383399844,
stim_set/easy-vcom=4-19.png,stand.png,competition,2.0,fall,left,easy,,398.1159574589983,406.17791283399856,correct,3.024477124999976,fall,left,5,410.6193131250002,,,,399.12650795899754,
stim_set/easy-280.png,fall.png,competition,3.75,stand,right,easy,,410.6198824589992,416.717731875,correct,1.0593939169993973,stand,right,5,422.6808577089978,,,,411.63033687499774,
stim_set/hard-321.png,stand.png,competition,3.0,stand,right,hard,,422.6814180000001,428.5944524999977,incorrect,0.8804620830014755,fall,left,5,433.8355131669996,,,,423.692015042001,
stim_set/hard-182.png,fall.png,competition,2.25,stand,right,hard,,433.83608554199964,440.62581574999786,incorrect,1.7583142920011596,fall,left,5,445.29354304200024,,,,434.8460899169986,
stim_set/hard-vcom=3-34.png,fall.png,competition,2.5,fall,left,hard,,445.29411716699906,452.0510068750009,correct,1.7144999999982247,fall,left,5,456.8482434590005,,,,446.30410499999925,
stim_set/easy-538.png,stand.png,competition,2.5,stand,right,easy,,456.8489843339994,463.06090108399803,correct,1.1801390000000538,stand,right,5,467.807191584001,,,,457.8595844169977,
stim_set/hard-244.png,fall.png,competition,4.0,stand,right,hard,,467.807731334,474.6692210000001,incorrect,1.8243694999982836,fall,left,5,481.10822383399864,481.1085553339981,,,468.8177154170007,
stim_set/easy-13.png,stand.png,competition,2.25,stand,right,easy,488.30704625,488.3079108749989,496.1594340419979,correct,2.8066636250005104,stand,right,5,500.6628266250009,,,,489.32059541700073,
stim_set/hard-vcom=4-23.png,fall.png,competition,3.25,fall,left,hard,,500.66338212499977,507.5594456250001,correct,1.8579490839983919,fall,left,5,513.085961083998,,,,501.673508625001,
stim_set/hard-vcom=4-80.png,fall.png,competition,2.5,fall,left,hard,,513.0865111249987,519.5275435000003,correct,1.40341966699998,fall,left,5,524.4159866669979,,,,514.0969811249997,
stim_set/easy-77.png,stand.png,competition,2.0,stand,right,easy,,524.4165240420007,531.6677061250011,correct,2.2134443750001083,stand,right,5,537.118291584,,,,525.426505667001,
stim_set/hard-177.png,fall.png,competition,3.75,stand,right,hard,,537.1188318749992,543.2440890420003,incorrect,1.0983623749998515,fall,left,5,549.2740737499989,,,,538.1289837919976,
stim_set/easy-vcom=2-94.png,stand.png,competition,4.0,fall,left,easy,,549.2746117089991,555.6012849170002,correct,1.2884055829999852,fall,left,5,561.8106027499998,,,,550.2848932089983,
stim_set/hard-vcom=1-30.png,fall.png,competition,2.75,fall,left,hard,,561.8112029590011,567.6842755420003,correct,0.836177958000917,fall,left,5,572.6818766670003,,,,562.821168041999,
stim_set/easy-vcom=3-15.png,stand.png,competition,3.0,fall,left,easy,,572.682430334,578.744308166999,correct,1.0276919999996608,fall,left,5,583.8434806670011,,,,573.6930540419999,
stim_set/hard-vcom=1-3.png,fall.png,competition,2.5,fall,left,hard,,583.8440870419981,589.9526791669996,correct,1.0748870000024908,fall,left,5,594.5589668339999,,,,584.854002125001,
stim_set/easy-411.png,stand.png,competition,2.25,stand,right,easy,,594.5595164170009,600.6945185839977,correct,1.0970152919981047,stand,right,4,605.3820541249988,,,,595.570035834,
stim_set/easy-344.png,fall.png,competition,3.25,stand,right,easy,,605.382656875001,611.9592746249982,correct,1.539391791997332,stand,right,5,617.7099165840009,,,,606.3929499589976,
stim_set/hard-vcom=3-142.png,stand.png,competition,2.75,fall,left,hard,,617.7105148339979,624.1676911670002,correct,1.414597250000952,fall,left,4,629.0815650839977,,,,618.7208920839985,
stim_set/hard-vcom=3-110.png,stand.png,competition,2.5,fall,left,hard,,629.0820672499976,635.2605867499988,correct,1.1510854170010134,fall,left,5,640.1759915420007,,,,630.0926795839987,
stim_set/hard-441.png,fall.png,competition,4.0,stand,right,hard,,640.1765483339987,649.5009773339989,correct,4.288195083998289,stand,right,4,655.780278541999,,,,641.1865117089983,
stim_set/hard-570.png,fall.png,competition,2.0,stand,right,hard,,655.7808325000005,661.9197357499979,incorrect,1.1008095420002064,fall,left,5,666.2283727920003,,,,656.7911419169977,
stim_set/hard-492.png,stand.png,competition,2.25,stand,right,hard,,666.2290684170002,672.469322500001,incorrect,1.2047197909996612,fall,left,4,677.430063249998,,,,667.2402427089983,
stim_set/hard-vcom=3-82.png,fall.png,competition,2.25,fall,left,hard,,677.4306839169985,683.3342616250011,correct,0.8634339579984953,fall,left,5,687.8297370420005,,,,678.4409707089981,
stim_set/hard-vcom=1-50.png,stand.png,competition,3.75,fall,left,hard,,687.830311709,693.969832458999,correct,1.100748917000601,fall,left,4,699.8965626669997,,,,688.8412583749996,
stim_set/hard-vcom=2-137.png,stand.png,competition,3.0,fall,left,hard,,699.8971057089984,705.7523814169981,correct,0.8236065840028459,fall,left,5,710.995961624998,,,,700.9078930420001,
stim_set/hard-vcom=4-147.png,fall.png,competition,2.5,fall,left,hard,,710.9965425000009,717.0107291249988,correct,0.976224625002942,fall,left,5,721.7753790839997,,,,712.0072036249985,
stim_set/hard-599.png,stand.png,competition,2.25,stand,right,hard,,721.7759194169994,728.0342725419978,incorrect,1.2254252919992723,fall,left,5,732.5653102920005,,,,722.786519792,
stim_set/hard-vcom=4-139.png,fall.png,competition,2.5,fall,left,hard,,732.5658965840012,738.7277314999992,correct,1.128488209000352,fall,left,5,744.0876614589979,,,,733.5764438340011,
stim_set/hard-vcom=1-130.png,fall.png,competition,3.25,fall,left,hard,,744.0882245840003,752.1843139999983,correct,3.058635207999032,fall,left,2,757.9498032499978,,,,745.098706834,
stim_set/easy-vcom=1-87.png,stand.png,competition,2.5,fall,left,easy,,757.9504029589989,766.1009786670002,correct,3.1091196659981506,fall,left,3,771.0232405419993,,,,758.9607082090006,
stim_set/hard-549.png,stand.png,competition,2.75,stand,right,hard,,771.0238227089976,780.0759683340002,incorrect,4.012264959001186,fall,left,2,786.4187562919979,,,,772.0343025420007,
stim_set/hard-391.png,stand.png,competition,3.25,stand,right,hard,,786.4193794589992,795.9275427089997,incorrect,4.474184916998638,fall,left,4,801.5491841250005,,,,787.4305879589992,
stim_set/hard-vcom=2-110.png,fall.png,competition,2.25,fall,left,hard,,801.5497222919985,808.8509260840001,correct,2.264520332999382,fall,left,5,813.2846470000004,,,,802.5597746669991,
stim_set/hard-vcom=4-142.png,stand.png,competition,2.75,fall,left,hard,,813.2851957499988,822.309254208998,incorrect,3.9850172080004995,stand,right,3,829.5305986249987,,,,814.2956338750009,
stim_set/hard-564.png,fall.png,competition,4.0,stand,right,hard,,829.5312236669997,835.4592801250001,incorrect,0.8863790420000441,fall,left,5,841.6440401250002,,,,830.5417400839979,
stim_set/hard-vcom=2-16.png,stand.png,competition,2.25,fall,left,hard,,841.6445642500003,848.0343222919983,correct,1.3465494590018352,fall,left,5,852.5651381669995,,,,842.6551234590006,
stim_set/easy-vcom=4-126.png,stand.png,competition,3.0,fall,left,easy,,852.565709833998,858.6339999589982,incorrect,1.025522957999783,stand,right,2,864.9021054589975,,,,853.5763960839977,
stim_set/hard-vcom=4-92.png,fall.png,competition,3.75,fall,left,hard,,864.902669209001,871.2442462500003,correct,1.30336716599777,fall,left,5,877.2575568339998,,,,865.913297916999,
stim_set/hard-7.png,stand.png,competition,2.0,stand,right,hard,,877.2583693339984,884.5092453340003,incorrect,2.207022833001247,fall,left,5,888.6603214589995,,,,878.2693731250001,
stim_set/hard-382.png,stand.png,competition,2.0,stand,right,hard,,888.6608969589979,895.6007947920007,incorrect,1.907009292001021,fall,left,4,900.1239889589997,,,,889.6715297499977,
stim_set/hard-316.png,fall.png,competition,3.75,stand,right,hard,,900.1247354589977,907.0364782920005,incorrect,1.878342124997289,fall,left,4,913.1215901249998,,,,901.1351627500007,
stim_set/hard-367.png,stand.png,competition,3.0,stand,right,hard,,913.1221572089999,920.492760541998,incorrect,2.330706333003036,fall,left,3,926.2832136249999,,,,914.1328811669991,
stim_set/hard-21.png,fall.png,competition,2.25,stand,right,hard,,926.2837799999979,932.3842912920009,incorrect,1.0634242499982065,fall,left,5,937.3812002499981,,,,927.2935319999997,
stim_set/hard-78.png,stand.png,competition,2.5,stand,right,hard,,937.3819102499983,944.8341835840001,incorrect,2.411472167001193,fall,left,4,949.9356968749998,,,,938.3926230420002,
stim_set/easy-vcom=1-145.png,fall.png,competition,2.5,fall,left,easy,,949.936235541998,955.9842647500009,correct,1.007241665996844,fall,left,5,960.7519831669997,,,,950.9466896249978,
stim_set/hard-14.png,stand.png,competition,4.0,stand,right,hard,,960.7525495000009,968.9176497090011,incorrect,3.1325370829981694,fall,left,5,976.0112467500003,976.0115809169984,,,961.7629277089982,
stim_set/hard-410.png,stand.png,cooperation,3.75,stand,right,hard,2.666998625500128e-06,0.0023357499994745012,10.029958709001221,incorrect,,,,,15.75683870899957,15.757202042001154,,,1.0159275840014743,
stim_set/hard-188.png,stand.png,competition,4.0,stand,right,hard,2.916996891144663e-06,0.002187250000133645,7.402357791997929,incorrect,2.3878960000001825,fall,left,5,13.834812249999231,13.83534724999845,,,1.0138149999984307,
