towers,bet,condition,iti,corr_choice,corr_key,difficulty,block_start,trial_start,stim_on,acc,trial_end,rt,part_choice,part_key,confidence,block_end,updated_score
stim_set/easy-vcom=3-142.png,none.png,unmotivated,2.75,fall,left,easy,3.708992153406143e-06,0.006211208994500339,5.0751377920096274,incorrect,10.438397709018318,,,,,,175.0
stim_set/hard-vcom=4-75.png,none.png,unmotivated,2.5,fall,left,hard,,10.43962650001049,15.508588166994741,incorrect,20.162223749997793,,,,,,
stim_set/hard-391.png,none.png,unmotivated,2.25,stand,right,hard,,20.16277154200361,22.475366792001296,correct,27.49290504201781,2.2603013329789974,stand,right,3,,
stim_set/hard-564.png,none.png,unmotivated,3.75,stand,right,hard,,27.493689958995674,30.875111166998977,correct,37.47932133401628,3.326312624994898,stand,right,3,,
stim_set/hard-244.png,none.png,unmotivated,3.25,stand,right,hard,,37.479861542000435,42.55039033401408,incorrect,47.21602570899995,,,,,,
stim_set/hard-334.png,none.png,unmotivated,2.0,stand,right,hard,,47.21658791700611,49.950417209009174,correct,54.60129849999794,2.6829925419879146,stand,right,3,,
stim_set/easy-vcom=1-87.png,none.png,unmotivated,3.0,fall,left,easy,,54.60188391699921,59.667073334014276,incorrect,63.79730891701183,,,,,,
stim_set/easy-vcom=2-20.png,none.png,unmotivated,2.25,fall,left,easy,,63.79790450001019,66.73383070901036,correct,71.49889200000325,2.8837942499958444,fall,left,3,,
stim_set/hard-599.png,none.png,unmotivated,3.0,stand,right,hard,,71.49944529199274,74.95889054200961,correct,80.53761383399251,3.412336500012316,stand,right,3,,
stim_set/easy-vcom=1-73.png,none.png,unmotivated,2.5,fall,left,easy,,80.53815916701569,83.60239837502013,correct,88.61353187501663,3.0223345419799443,fall,left,3,,
stim_set/easy-344.png,none.png,unmotivated,4.0,stand,right,easy,,88.61407275000238,93.02559287499753,correct,99.55332279199501,4.359847583022201,stand,right,3,,
stim_set/easy-538.png,none.png,unmotivated,2.5,stand,right,easy,,99.55386166699464,102.8922003750049,correct,108.00567170901923,3.28770883299876,stand,right,3,,
stim_set/hard-78.png,none.png,unmotivated,2.25,stand,right,hard,,108.00629849999677,110.80890825000824,incorrect,115.65149558399571,2.7479879580205306,fall,left,3,,
stim_set/easy-280.png,none.png,unmotivated,3.0,stand,right,easy,,115.65206720901188,120.22747895901557,incorrect,125.67365295899799,4.528019416989991,fall,left,3,,
stim_set/easy-vcom=3-38.png,none.png,unmotivated,2.5,fall,left,easy,,125.67420329200104,128.4171198340191,incorrect,133.4458871250099,2.6875944590137806,stand,right,3,,
stim_set/hard-vcom=3-82.png,none.png,unmotivated,2.25,fall,left,hard,,133.44654333399376,136.15891245901003,correct,140.9473499589949,2.657621416990878,fall,left,3,,
stim_set/hard-vcom=4-23.png,none.png,unmotivated,2.5,fall,left,hard,,140.9479877090198,144.35915354199824,correct,149.38114995899377,3.3589264589827508,fall,left,3,,
stim_set/easy-vcom=4-69.png,none.png,unmotivated,2.25,fall,left,easy,,149.3818959170021,153.43606666699634,correct,158.2353592920117,4.003318625007523,fall,left,3,,
stim_set/hard-vcom=3-34.png,none.png,unmotivated,2.0,fall,left,hard,,158.23588862500037,161.25086291701882,incorrect,165.70595445900108,2.9583953749970533,stand,right,3,,
stim_set/hard-492.png,none.png,unmotivated,2.0,stand,right,hard,,165.70652075001271,168.5674463339965,incorrect,173.20267504200456,2.807272334001027,fall,left,3,,
stim_set/hard-600.png,none.png,unmotivated,2.5,stand,right,hard,,173.2032415420108,176.2091746670194,correct,181.47741458402015,2.9592565830098465,stand,right,2,,
stim_set/hard-316.png,none.png,unmotivated,2.0,stand,right,hard,,181.477977750008,185.51765300001716,correct,189.91360041699954,3.987322375003714,stand,right,3,,
stim_set/hard-vcom=2-20.png,none.png,unmotivated,2.25,fall,left,hard,,189.9141359589994,193.48431775000063,incorrect,199.05292208399624,3.5147272500034887,stand,right,3,,
stim_set/easy-vcom=4-126.png,none.png,unmotivated,2.5,fall,left,easy,,199.0534688339976,202.7174646249914,correct,207.73443825001596,3.6080110000038985,fall,left,3,,
stim_set/easy-77.png,none.png,unmotivated,3.0,stand,right,easy,,207.73499229201116,211.80091245900257,incorrect,217.24168379200273,4.0143830419983715,fall,left,3,,
stim_set/hard-vcom=3-110.png,none.png,unmotivated,3.0,fall,left,hard,,217.2424433340202,220.15110483401804,incorrect,226.0739587499993,2.86247595801251,stand,right,2,,
stim_set/easy-vcom=2-3.png,none.png,unmotivated,4.0,fall,left,easy,,226.07452087500133,230.99264104201575,incorrect,237.31437829200877,4.863381083006971,stand,right,3,,
stim_set/hard-vcom=2-100.png,none.png,unmotivated,3.25,fall,left,hard,,237.31500683401828,240.8759639589989,incorrect,246.5712788749952,3.5083994169835933,stand,right,3,,
stim_set/hard-367.png,none.png,unmotivated,2.5,stand,right,hard,,246.57180333399447,249.7593585420109,incorrect,254.6467891249922,3.1349428329849616,fall,left,3,,
stim_set/easy-vcom=3-15.png,none.png,unmotivated,2.25,fall,left,easy,,254.6474072090059,258.2344190000149,correct,263.6113697499968,3.5348947920138016,fall,left,3,,
stim_set/hard-402.png,none.png,unmotivated,2.5,stand,right,hard,,263.61191516701365,267.20112625000183,incorrect,272.270032542001,3.5346655000175815,fall,left,3,,
stim_set/hard-82.png,none.png,unmotivated,3.75,stand,right,hard,,272.27052533399547,277.34287483399385,incorrect,282.95644300000276,,,,,,
stim_set/hard-vcom=1-3.png,none.png,unmotivated,2.75,fall,left,hard,,282.95705258400994,286.76783508399967,incorrect,292.7849032920203,3.7570663329970557,stand,right,3,,
stim_set/hard-14.png,none.png,unmotivated,3.25,stand,right,hard,,292.78543762501795,295.9781780420162,incorrect,301.64431104200776,3.151396625005873,fall,left,3,,
stim_set/hard-345.png,none.png,unmotivated,2.5,stand,right,hard,,301.6449193750159,305.53463224999723,incorrect,310.9583115419955,3.837534374993993,fall,left,3,,
stim_set/easy-13.png,none.png,unmotivated,2.5,stand,right,easy,,310.95889937499305,314.6112746669969,correct,319.39817554201,3.600448666984448,stand,right,3,,
stim_set/hard-382.png,none.png,unmotivated,2.75,stand,right,hard,,319.3987822920026,324.46161450000363,incorrect,328.263059000019,,,,,,
stim_set/hard-549.png,none.png,unmotivated,3.25,stand,right,hard,,328.2637192500115,331.50140204202035,incorrect,337.0521195420006,3.1839582920074463,fall,left,3,,
stim_set/hard-vcom=3-7.png,none.png,unmotivated,2.75,fall,left,hard,,337.0528780000168,342.11854700002004,incorrect,346.33304129200405,,,,,,
stim_set/hard-vcom=4-92.png,none.png,unmotivated,2.75,fall,left,hard,,346.33371704199817,349.46164787499583,incorrect,354.8570974589966,3.075601958000334,stand,right,3,354.8574353340082,
stim_set/easy-vcom=1-145.png,none.png,unmotivated,3.75,fall,left,easy,358.0175827500061,358.01839608399314,361.61970012501115,correct,367.70449662499595,3.5513562080159318,fall,left,3,,
stim_set/hard-40.png,none.png,unmotivated,3.0,stand,right,hard,,367.70505112499814,370.5427433339937,correct,376.0271332919947,2.7827182080072816,stand,right,3,,
stim_set/hard-21.png,none.png,unmotivated,4.0,stand,right,hard,,376.0277446669934,380.1528612500115,correct,386.45919900000445,4.078242374991532,stand,right,3,,
stim_set/hard-vcom=2-16.png,none.png,unmotivated,2.5,fall,left,hard,,386.4597932920151,390.6367590420123,correct,396.25437283399515,4.1243274580047,fall,left,3,,
stim_set/hard-280.png,none.png,unmotivated,2.25,stand,right,hard,,396.2550111669989,400.6033272090135,correct,405.17351779202,4.2971141659945715,stand,right,3,,
stim_set/easy-vcom=3-74.png,none.png,unmotivated,2.25,fall,left,easy,,405.1741787090141,408.5931518340076,incorrect,413.2124521670048,3.363167749979766,stand,right,3,,
stim_set/easy-vcom=2-147.png,none.png,unmotivated,3.25,fall,left,easy,,413.2129798750102,416.3017067500041,correct,421.85268908401486,3.0347083329979796,fall,left,3,,
stim_set/hard-vcom=1-50.png,none.png,unmotivated,3.75,fall,left,hard,,421.85323420900386,425.10340370901395,incorrect,431.20090345901554,3.198391374986386,stand,right,3,,
stim_set/easy-590.png,none.png,unmotivated,2.5,stand,right,easy,,431.2014272919914,436.2681906670041,incorrect,440.0591912920063,,,,,,
stim_set/easy-vcom=4-19.png,none.png,unmotivated,3.25,fall,left,easy,,440.05980254200404,443.62666979199275,incorrect,450.04416137500084,3.510189000022365,stand,right,3,,
stim_set/easy-164.png,none.png,unmotivated,4.0,stand,right,easy,,450.0446853750036,454.40992929201457,correct,461.01854129199637,4.308376416011015,stand,right,3,,
stim_set/hard-49.png,none.png,unmotivated,2.25,stand,right,hard,,461.0191860840132,464.4350867920148,correct,468.90896091700415,3.3578613749996293,stand,right,3,,
stim_set/hard-vcom=1-130.png,none.png,unmotivated,2.25,fall,left,hard,,468.9095216249989,472.1934015839943,incorrect,476.71662091699545,3.2321160419960506,stand,right,3,,
stim_set/hard-vcom=3-145.png,none.png,unmotivated,2.75,fall,left,hard,,476.7171494170034,480.06176970902015,incorrect,485.8486215840094,3.303128250001464,stand,right,3,,
stim_set/easy-vcom=2-94.png,none.png,unmotivated,2.75,fall,left,easy,,485.8492065000173,489.759878959012,incorrect,494.79252533399267,3.858762874995591,stand,right,3,,
stim_set/hard-321.png,none.png,unmotivated,2.25,stand,right,hard,,494.79312587500317,499.86012875000597,incorrect,503.4489134589967,,,,,,
stim_set/hard-2.png,none.png,unmotivated,2.75,stand,right,hard,,503.44952024999657,506.8788890840078,incorrect,512.2803039590071,3.3791752500110306,fall,left,3,,
stim_set/hard-vcom=2-110.png,none.png,unmotivated,3.0,fall,left,hard,,512.2808480840176,515.9369932090049,incorrect,521.4667517089983,3.6097808750055265,stand,right,3,,
stim_set/hard-7.png,none.png,unmotivated,2.25,stand,right,hard,,521.4672997920134,524.8955958750157,correct,529.2282125840138,3.375747209007386,stand,right,3,,
stim_set/hard-570.png,none.png,unmotivated,2.25,stand,right,hard,,529.228767084016,534.3035240840109,incorrect,538.0407797500084,,,,,,
stim_set/hard-vcom=2-137.png,none.png,unmotivated,3.0,fall,left,hard,,538.0413538340072,540.6519099170109,correct,545.9383596249972,2.5602007080160547,fall,left,3,,
stim_set/hard-177.png,none.png,unmotivated,2.0,stand,right,hard,,545.9390563339985,549.8538632090203,correct,554.218764417019,3.87270362500567,stand,right,3,,
stim_set/hard-vcom=1-30.png,none.png,unmotivated,3.75,fall,left,hard,,554.2196222920029,557.645839417004,incorrect,563.6245409999974,3.380214333999902,stand,right,3,,
stim_set/hard-vcom=3-142.png,none.png,unmotivated,3.25,fall,left,hard,,563.6250710420136,566.2035834169947,correct,571.7094065420097,2.5270835420233198,fall,left,3,,
stim_set/hard-vcom=4-147.png,none.png,unmotivated,2.25,fall,left,hard,,571.709928583994,574.5534627090092,incorrect,578.9079798750172,2.7917107499961276,stand,right,3,,
stim_set/hard-vcom=4-139.png,none.png,unmotivated,4.0,fall,left,hard,,578.9085267920163,582.3788246670156,correct,589.9800468750182,3.423156665987335,fall,left,3,,
stim_set/hard-vcom=2-147.png,none.png,unmotivated,2.5,fall,left,hard,,589.9806880840042,593.3771554169944,incorrect,598.1264095840161,3.349124041997129,stand,right,3,,
stim_set/easy-411.png,none.png,unmotivated,4.0,stand,right,easy,,598.1269431250112,601.6189093340072,incorrect,607.9153636250121,3.435708999983035,fall,left,3,,
stim_set/hard-vcom=4-142.png,none.png,unmotivated,4.0,fall,left,hard,,607.9159602920117,611.2271104170068,incorrect,617.6513767089928,3.2586080000037327,stand,right,3,,
stim_set/hard-369.png,none.png,unmotivated,2.0,stand,right,hard,,617.6519791670144,620.9353829589963,correct,625.8592282500176,3.2373508750170004,stand,right,3,,
stim_set/hard-214.png,none.png,unmotivated,3.25,stand,right,hard,,625.8597955839941,629.3269157090108,incorrect,634.7648454169976,3.411392584006535,fall,left,3,,
stim_set/hard-441.png,none.png,unmotivated,2.5,stand,right,hard,,634.7653560420149,638.8771350420138,incorrect,643.6796754169918,4.0620497499767225,fall,left,3,,
stim_set/hard-vcom=4-80.png,none.png,unmotivated,3.75,fall,left,hard,,643.6802514170122,646.9791470000055,correct,652.9446661249967,3.247013791988138,fall,left,3,,
stim_set/hard-132.png,none.png,unmotivated,3.75,stand,right,hard,,652.9454839169921,656.0457646250143,correct,662.0734784590022,3.0525265419855714,stand,right,3,,
stim_set/hard-566.png,none.png,unmotivated,3.75,stand,right,hard,,662.0740426249977,664.6541228750139,incorrect,670.6646312090161,2.5276725000003353,fall,left,3,,
stim_set/easy-vcom=1-12.png,none.png,unmotivated,2.0,fall,left,easy,,670.6652267500176,673.2957800840086,incorrect,677.6359435000049,2.5794276249944232,stand,right,3,,
stim_set/hard-vcom=1-95.png,none.png,unmotivated,2.0,fall,left,hard,,677.6365080840187,679.3773792500142,correct,684.002970417001,1.6888528339914046,fall,left,3,,
stim_set/hard-vcom=1-136.png,none.png,unmotivated,2.5,fall,left,hard,,684.0036440000113,686.5436743750179,correct,691.3748030000133,2.4880504999891855,fall,left,3,,
stim_set/hard-182.png,none.png,unmotivated,4.0,stand,right,hard,,691.3753499590093,693.7521196250163,incorrect,700.0833843339933,2.3307992500194814,fall,left,3,,
stim_set/hard-91.png,none.png,unmotivated,2.25,stand,right,hard,,700.0839413340145,701.7273859590059,correct,706.3805549590033,1.5892190840095282,stand,right,3,706.3809520000068,
stim_set/hard-391.png,stand.png,cooperation,2.75,stand,right,hard,,,,,,,,,,,
stim_set/hard-382.png,fall.png,cooperation,3.75,stand,right,hard,,,,,,,,,,,
stim_set/easy-vcom=3-38.png,stand.png,cooperation,2.25,fall,left,easy,,,,,,,,,,,
stim_set/hard-549.png,stand.png,cooperation,2.25,stand,right,hard,,,,,,,,,,,
stim_set/hard-492.png,fall.png,cooperation,2.25,stand,right,hard,,,,,,,,,,,
stim_set/hard-2.png,stand.png,cooperation,3.25,stand,right,hard,,,,,,,,,,,
stim_set/hard-334.png,fall.png,cooperation,2.75,stand,right,hard,,,,,,,,,,,
stim_set/easy-vcom=1-12.png,stand.png,cooperation,2.25,fall,left,easy,,,,,,,,,,,
stim_set/easy-280.png,fall.png,cooperation,3.0,stand,right,easy,,,,,,,,,,,
stim_set/hard-441.png,fall.png,cooperation,2.0,stand,right,hard,,,,,,,,,,,
stim_set/hard-321.png,stand.png,cooperation,2.25,stand,right,hard,,,,,,,,,,,
stim_set/hard-566.png,fall.png,cooperation,3.25,stand,right,hard,,,,,,,,,,,
stim_set/hard-82.png,stand.png,cooperation,2.25,stand,right,hard,,,,,,,,,,,
stim_set/hard-vcom=4-139.png,stand.png,cooperation,2.75,fall,left,hard,,,,,,,,,,,
stim_set/hard-vcom=1-50.png,fall.png,cooperation,4.0,fall,left,hard,,,,,,,,,,,
stim_set/hard-vcom=1-3.png,fall.png,cooperation,2.25,fall,left,hard,,,,,,,,,,,
stim_set/hard-91.png,stand.png,cooperation,3.75,stand,right,hard,,,,,,,,,,,
stim_set/hard-367.png,stand.png,cooperation,3.75,stand,right,hard,,,,,,,,,,,
stim_set/easy-vcom=4-19.png,fall.png,cooperation,2.25,fall,left,easy,,,,,,,,,,,
stim_set/hard-vcom=3-34.png,stand.png,cooperation,3.25,fall,left,hard,,,,,,,,,,,
stim_set/hard-vcom=3-110.png,stand.png,cooperation,2.0,fall,left,hard,,,,,,,,,,,
stim_set/hard-vcom=3-145.png,fall.png,cooperation,3.75,fall,left,hard,,,,,,,,,,,
stim_set/easy-411.png,stand.png,cooperation,2.0,stand,right,easy,,,,,,,,,,,
stim_set/hard-244.png,stand.png,cooperation,2.5,stand,right,hard,,,,,,,,,,,
stim_set/easy-590.png,fall.png,cooperation,4.0,stand,right,easy,,,,,,,,,,,
stim_set/hard-402.png,stand.png,cooperation,3.75,stand,right,hard,,,,,,,,,,,
stim_set/hard-vcom=4-23.png,fall.png,cooperation,3.0,fall,left,hard,,,,,,,,,,,
stim_set/hard-vcom=1-130.png,stand.png,cooperation,2.5,fall,left,hard,,,,,,,,,,,
stim_set/hard-vcom=2-147.png,stand.png,cooperation,2.5,fall,left,hard,,,,,,,,,,,
stim_set/hard-vcom=4-142.png,fall.png,cooperation,2.25,fall,left,hard,,,,,,,,,,,
stim_set/easy-vcom=3-15.png,stand.png,cooperation,3.0,fall,left,easy,,,,,,,,,,,
stim_set/hard-316.png,stand.png,cooperation,2.5,stand,right,hard,,,,,,,,,,,
stim_set/easy-vcom=4-126.png,stand.png,cooperation,2.5,fall,left,easy,,,,,,,,,,,
stim_set/easy-13.png,fall.png,cooperation,3.25,stand,right,easy,,,,,,,,,,,
stim_set/easy-vcom=3-142.png,fall.png,cooperation,3.25,fall,left,easy,,,,,,,,,,,
stim_set/hard-280.png,stand.png,cooperation,3.25,stand,right,hard,,,,,,,,,,,
stim_set/easy-vcom=1-145.png,stand.png,cooperation,3.75,fall,left,easy,,,,,,,,,,,
stim_set/hard-vcom=4-75.png,fall.png,cooperation,2.0,fall,left,hard,,,,,,,,,,,
stim_set/hard-vcom=2-100.png,fall.png,cooperation,4.0,fall,left,hard,,,,,,,,,,,
stim_set/hard-177.png,stand.png,cooperation,2.0,stand,right,hard,,,,,,,,,,,
stim_set/easy-vcom=2-3.png,fall.png,cooperation,3.75,fall,left,easy,,,,,,,,,,,
stim_set/hard-vcom=4-92.png,fall.png,cooperation,2.25,fall,left,hard,,,,,,,,,,,
stim_set/easy-164.png,stand.png,cooperation,3.75,stand,right,easy,,,,,,,,,,,
stim_set/hard-vcom=1-136.png,stand.png,cooperation,2.75,fall,left,hard,,,,,,,,,,,
stim_set/easy-538.png,fall.png,cooperation,2.5,stand,right,easy,,,,,,,,,,,
stim_set/hard-vcom=3-7.png,stand.png,cooperation,2.75,fall,left,hard,,,,,,,,,,,
stim_set/easy-vcom=1-73.png,fall.png,cooperation,2.5,fall,left,easy,,,,,,,,,,,
stim_set/hard-vcom=3-82.png,stand.png,cooperation,2.5,fall,left,hard,,,,,,,,,,,
stim_set/hard-14.png,stand.png,cooperation,2.5,stand,right,hard,,,,,,,,,,,
stim_set/hard-369.png,fall.png,cooperation,2.5,stand,right,hard,,,,,,,,,,,
stim_set/easy-vcom=4-69.png,fall.png,cooperation,4.0,fall,left,easy,,,,,,,,,,,
stim_set/hard-vcom=2-20.png,fall.png,cooperation,2.0,fall,left,hard,,,,,,,,,,,
stim_set/hard-vcom=3-142.png,stand.png,cooperation,4.0,fall,left,hard,,,,,,,,,,,
stim_set/hard-7.png,fall.png,cooperation,2.75,stand,right,hard,,,,,,,,,,,
stim_set/hard-132.png,stand.png,cooperation,3.0,stand,right,hard,,,,,,,,,,,
stim_set/hard-vcom=4-147.png,fall.png,cooperation,3.25,fall,left,hard,,,,,,,,,,,
stim_set/hard-vcom=1-30.png,stand.png,cooperation,2.5,fall,left,hard,,,,,,,,,,,
stim_set/easy-vcom=1-87.png,fall.png,cooperation,2.5,fall,left,easy,,,,,,,,,,,
stim_set/easy-vcom=3-74.png,fall.png,cooperation,2.25,fall,left,easy,,,,,,,,,,,
stim_set/easy-vcom=2-20.png,stand.png,cooperation,4.0,fall,left,easy,,,,,,,,,,,
stim_set/hard-570.png,fall.png,cooperation,2.0,stand,right,hard,,,,,,,,,,,
stim_set/hard-78.png,fall.png,cooperation,2.25,stand,right,hard,,,,,,,,,,,
stim_set/hard-40.png,stand.png,cooperation,3.0,stand,right,hard,,,,,,,,,,,
stim_set/hard-vcom=2-16.png,stand.png,cooperation,2.25,fall,left,hard,,,,,,,,,,,
stim_set/hard-599.png,fall.png,cooperation,2.0,stand,right,hard,,,,,,,,,,,
stim_set/hard-vcom=2-137.png,fall.png,cooperation,2.25,fall,left,hard,,,,,,,,,,,
stim_set/hard-600.png,fall.png,cooperation,3.0,stand,right,hard,,,,,,,,,,,
stim_set/hard-182.png,stand.png,cooperation,2.75,stand,right,hard,,,,,,,,,,,
stim_set/easy-vcom=2-94.png,fall.png,cooperation,4.0,fall,left,easy,,,,,,,,,,,
stim_set/easy-344.png,stand.png,cooperation,2.75,stand,right,easy,,,,,,,,,,,
stim_set/easy-vcom=3-74.png,fall.png,cooperation,2.25,fall,left,easy,,,,,,,,,,,
stim_set/hard-vcom=2-110.png,stand.png,cooperation,2.5,fall,left,hard,,,,,,,,,,,
stim_set/hard-21.png,fall.png,cooperation,2.5,stand,right,hard,,,,,,,,,,,
stim_set/easy-77.png,stand.png,cooperation,2.5,stand,right,easy,,,,,,,,,,,
stim_set/hard-214.png,fall.png,cooperation,3.25,stand,right,hard,,,,,,,,,,,
stim_set/hard-49.png,stand.png,cooperation,3.0,stand,right,hard,,,,,,,,,,,
stim_set/hard-345.png,fall.png,cooperation,2.25,stand,right,hard,,,,,,,,,,,
stim_set/hard-vcom=1-95.png,fall.png,cooperation,2.5,fall,left,hard,,,,,,,,,,,
stim_set/hard-564.png,stand.png,cooperation,2.25,stand,right,hard,,,,,,,,,,,
stim_set/easy-vcom=2-147.png,stand.png,cooperation,3.0,fall,left,easy,,,,,,,,,,,
stim_set/hard-vcom=4-80.png,fall.png,cooperation,4.0,fall,left,hard,,,,,,,,,,,
stim_set/hard-vcom=1-136.png,fall.png,competition,3.25,fall,left,hard,,,,,,,,,,,
stim_set/hard-369.png,stand.png,competition,3.0,stand,right,hard,,,,,,,,,,,
stim_set/hard-vcom=2-147.png,fall.png,competition,2.0,fall,left,hard,,,,,,,,,,,
stim_set/hard-vcom=2-20.png,stand.png,competition,3.75,fall,left,hard,,,,,,,,,,,
stim_set/easy-vcom=1-73.png,fall.png,competition,4.0,fall,left,easy,,,,,,,,,,,
stim_set/hard-132.png,stand.png,competition,2.75,stand,right,hard,,,,,,,,,,,
stim_set/easy-vcom=2-20.png,fall.png,competition,3.0,fall,left,easy,,,,,,,,,,,
stim_set/hard-280.png,fall.png,competition,2.5,stand,right,hard,,,,,,,,,,,
stim_set/hard-600.png,stand.png,competition,2.25,stand,right,hard,,,,,,,,,,,
stim_set/hard-334.png,stand.png,competition,3.25,stand,right,hard,,,,,,,,,,,
stim_set/easy-vcom=1-12.png,stand.png,competition,2.75,fall,left,easy,,,,,,,,,,,
stim_set/easy-vcom=2-147.png,fall.png,competition,2.5,fall,left,easy,,,,,,,,,,,
stim_set/easy-590.png,stand.png,competition,4.0,stand,right,easy,,,,,,,,,,,
stim_set/hard-91.png,stand.png,competition,2.0,stand,right,hard,,,,,,,,,,,
stim_set/hard-vcom=1-95.png,fall.png,competition,2.25,fall,left,hard,,,,,,,,,,,
stim_set/hard-402.png,stand.png,competition,2.25,stand,right,hard,,,,,,,,,,,
stim_set/hard-49.png,fall.png,competition,3.75,stand,right,hard,,,,,,,,,,,
stim_set/easy-vcom=4-69.png,stand.png,competition,3.0,fall,left,easy,,,,,,,,,,,
stim_set/easy-vcom=3-38.png,fall.png,competition,2.5,fall,left,easy,,,,,,,,,,,
stim_set/hard-vcom=3-7.png,stand.png,competition,2.25,fall,left,hard,,,,,,,,,,,
stim_set/easy-vcom=3-142.png,fall.png,competition,2.5,fall,left,easy,,,,,,,,,,,
stim_set/hard-345.png,fall.png,competition,3.25,stand,right,hard,,,,,,,,,,,
stim_set/easy-164.png,stand.png,competition,2.5,stand,right,easy,,,,,,,,,,,
stim_set/hard-2.png,fall.png,competition,2.75,stand,right,hard,,,,,,,,,,,
stim_set/hard-vcom=4-75.png,stand.png,competition,3.25,fall,left,hard,,,,,,,,,,,
stim_set/hard-40.png,stand.png,competition,2.25,stand,right,hard,,,,,,,,,,,
stim_set/hard-vcom=2-100.png,stand.png,competition,2.75,fall,left,hard,,,,,,,,,,,
stim_set/hard-vcom=3-145.png,fall.png,competition,4.0,fall,left,hard,,,,,,,,,,,
stim_set/hard-82.png,stand.png,competition,2.25,stand,right,hard,,,,,,,,,,,
stim_set/easy-vcom=2-3.png,fall.png,competition,2.5,fall,left,easy,,,,,,,,,,,
stim_set/hard-566.png,fall.png,competition,3.75,stand,right,hard,,,,,,,,,,,
stim_set/hard-214.png,fall.png,competition,2.0,stand,right,hard,,,,,,,,,,,
stim_set/easy-vcom=4-19.png,stand.png,competition,2.0,fall,left,easy,,,,,,,,,,,
stim_set/easy-280.png,fall.png,competition,3.75,stand,right,easy,,,,,,,,,,,
stim_set/hard-321.png,stand.png,competition,3.0,stand,right,hard,,,,,,,,,,,
stim_set/hard-182.png,fall.png,competition,2.25,stand,right,hard,,,,,,,,,,,
stim_set/hard-vcom=3-34.png,fall.png,competition,2.5,fall,left,hard,,,,,,,,,,,
stim_set/easy-538.png,stand.png,competition,2.5,stand,right,easy,,,,,,,,,,,
stim_set/hard-244.png,fall.png,competition,4.0,stand,right,hard,,,,,,,,,,,
stim_set/easy-13.png,stand.png,competition,2.25,stand,right,easy,,,,,,,,,,,
stim_set/hard-vcom=4-23.png,fall.png,competition,3.25,fall,left,hard,,,,,,,,,,,
stim_set/hard-vcom=4-80.png,fall.png,competition,2.5,fall,left,hard,,,,,,,,,,,
stim_set/easy-77.png,stand.png,competition,2.0,stand,right,easy,,,,,,,,,,,
stim_set/hard-177.png,fall.png,competition,3.75,stand,right,hard,,,,,,,,,,,
stim_set/easy-vcom=2-94.png,stand.png,competition,4.0,fall,left,easy,,,,,,,,,,,
stim_set/hard-vcom=1-30.png,fall.png,competition,2.75,fall,left,hard,,,,,,,,,,,
stim_set/easy-vcom=3-15.png,stand.png,competition,3.0,fall,left,easy,,,,,,,,,,,
stim_set/hard-vcom=1-3.png,fall.png,competition,2.5,fall,left,hard,,,,,,,,,,,
stim_set/easy-411.png,stand.png,competition,2.25,stand,right,easy,,,,,,,,,,,
stim_set/easy-344.png,fall.png,competition,3.25,stand,right,easy,,,,,,,,,,,
stim_set/hard-vcom=3-142.png,stand.png,competition,2.75,fall,left,hard,,,,,,,,,,,
stim_set/hard-vcom=3-110.png,stand.png,competition,2.5,fall,left,hard,,,,,,,,,,,
stim_set/hard-441.png,fall.png,competition,4.0,stand,right,hard,,,,,,,,,,,
stim_set/hard-570.png,fall.png,competition,2.0,stand,right,hard,,,,,,,,,,,
stim_set/hard-492.png,stand.png,competition,2.25,stand,right,hard,,,,,,,,,,,
stim_set/hard-vcom=3-82.png,fall.png,competition,2.25,fall,left,hard,,,,,,,,,,,
stim_set/hard-vcom=1-50.png,stand.png,competition,3.75,fall,left,hard,,,,,,,,,,,
stim_set/hard-vcom=2-137.png,stand.png,competition,3.0,fall,left,hard,,,,,,,,,,,
stim_set/hard-vcom=4-147.png,fall.png,competition,2.5,fall,left,hard,,,,,,,,,,,
stim_set/hard-599.png,stand.png,competition,2.25,stand,right,hard,,,,,,,,,,,
stim_set/hard-vcom=4-139.png,fall.png,competition,2.5,fall,left,hard,,,,,,,,,,,
stim_set/hard-vcom=1-130.png,fall.png,competition,3.25,fall,left,hard,,,,,,,,,,,
stim_set/easy-vcom=1-87.png,stand.png,competition,2.5,fall,left,easy,,,,,,,,,,,
stim_set/hard-549.png,stand.png,competition,2.75,stand,right,hard,,,,,,,,,,,
stim_set/hard-391.png,stand.png,competition,3.25,stand,right,hard,,,,,,,,,,,
stim_set/hard-vcom=2-110.png,fall.png,competition,2.25,fall,left,hard,,,,,,,,,,,
stim_set/hard-vcom=4-142.png,stand.png,competition,2.75,fall,left,hard,,,,,,,,,,,
stim_set/hard-564.png,fall.png,competition,4.0,stand,right,hard,,,,,,,,,,,
stim_set/hard-vcom=2-16.png,stand.png,competition,2.25,fall,left,hard,,,,,,,,,,,
stim_set/easy-vcom=4-126.png,stand.png,competition,3.0,fall,left,easy,,,,,,,,,,,
stim_set/hard-vcom=4-92.png,fall.png,competition,3.75,fall,left,hard,,,,,,,,,,,
stim_set/hard-7.png,stand.png,competition,2.0,stand,right,hard,,,,,,,,,,,
stim_set/hard-382.png,stand.png,competition,2.0,stand,right,hard,,,,,,,,,,,
stim_set/hard-316.png,fall.png,competition,3.75,stand,right,hard,,,,,,,,,,,
stim_set/hard-367.png,stand.png,competition,3.0,stand,right,hard,,,,,,,,,,,
stim_set/hard-21.png,fall.png,competition,2.25,stand,right,hard,,,,,,,,,,,
stim_set/hard-78.png,stand.png,competition,2.5,stand,right,hard,,,,,,,,,,,
stim_set/easy-vcom=1-145.png,fall.png,competition,2.5,fall,left,easy,,,,,,,,,,,
stim_set/hard-14.png,stand.png,competition,4.0,stand,right,hard,,,,,,,,,,,
stim_set/hard-410.png,stand.png,cooperation,3.75,stand,right,hard,,,,,,,,,,,
stim_set/hard-188.png,stand.png,competition,4.0,stand,right,hard,,,,,,,,,,,
