towers,bet,condition,iti,corr_choice,corr_key,difficulty,block_start,trial_start,stim_on,acc,trial_end,rt,part_choice,part_key,confidence,block_end,updated_score,condition_first,cue_on
stim_set/easy-vcom=2-20.png,none.png,unmotivated,2.25,fall,left,easy,3.708000008373346e-06,0.006783166999980494,5.07360237499995,incorrect,9.737776499999997,,,,,,205.0,competition,
stim_set/easy-vcom=4-19.png,none.png,unmotivated,3.25,fall,left,easy,,9.739163666999957,11.116946332999987,incorrect,19.10974837499998,1.3262558750000153,stand,right,4.0,,415.0,,
stim_set/hard-vcom=2-137.png,none.png,unmotivated,3.0,fall,left,hard,,19.11047525000004,20.123565999999983,correct,27.066052958,0.9618461669999759,fall,left,3.0,,,,
stim_set/hard-vcom=3-34.png,none.png,unmotivated,2.0,fall,left,hard,,27.066539541999987,28.04128354199997,correct,33.25811891699993,0.9236654999999699,fall,left,4.0,,,,
stim_set/hard-564.png,none.png,unmotivated,3.75,stand,right,hard,,33.258678583000005,34.12355008299994,incorrect,42.72828920799998,0.8090867920000164,fall,left,4.0,,,,
stim_set/hard-21.png,none.png,unmotivated,4.0,stand,right,hard,,42.728886624999966,44.59011720800004,incorrect,52.08264720800002,1.8095047499999737,fall,left,2.0,,,,
stim_set/hard-vcom=3-145.png,none.png,unmotivated,2.75,fall,left,hard,,52.08327904199996,53.04853620799997,incorrect,58.59008741699995,0.9186213329999192,stand,right,4.0,,,,
stim_set/easy-vcom=1-87.png,none.png,unmotivated,3.0,fall,left,easy,,58.590635958000014,59.68182916699993,incorrect,66.76988937499993,1.0361532499999841,stand,right,2.0,,,,
stim_set/hard-vcom=2-16.png,none.png,unmotivated,2.5,fall,left,hard,,66.77044212499993,67.71506133300001,correct,73.10111458300003,0.8871692499999426,fall,left,4.0,,,,
stim_set/hard-91.png,none.png,unmotivated,2.25,stand,right,hard,,73.10192104199994,74.46508099999993,correct,80.49948679199997,1.308384124999975,stand,right,3.0,,,,
stim_set/hard-214.png,none.png,unmotivated,3.25,stand,right,hard,,80.50002083300001,82.099882708,incorrect,88.64361974999996,1.5485465839999506,fall,left,2.0,,,,
stim_set/hard-vcom=1-3.png,none.png,unmotivated,2.75,fall,left,hard,,88.64418224999996,89.76678600000002,correct,95.438883208,1.0745419170000332,fall,left,2.0,,,,
stim_set/hard-441.png,none.png,unmotivated,2.5,stand,right,hard,,95.43942066700005,96.35824016699995,correct,102.52618883299999,0.8729668749999746,stand,right,3.0,,,,
stim_set/easy-344.png,none.png,unmotivated,4.0,stand,right,easy,,102.52673645799996,103.49000833299999,correct,110.70699791699995,0.911793583000076,stand,right,4.0,,,,
stim_set/hard-177.png,none.png,unmotivated,2.0,stand,right,hard,,110.70755220800005,111.740148375,incorrect,116.51297049999994,0.985804250000001,fall,left,3.0,,,,
stim_set/hard-321.png,none.png,unmotivated,2.25,stand,right,hard,,116.51356966699996,117.53296762499996,incorrect,123.53271625000002,0.9733038340000348,fall,left,5.0,,,,
stim_set/easy-vcom=4-69.png,none.png,unmotivated,2.25,fall,left,easy,,123.53326570799992,124.42337133299999,incorrect,130.18262541699994,0.8340496669999311,stand,right,4.0,,,,
stim_set/hard-vcom=1-30.png,none.png,unmotivated,3.75,fall,left,hard,,130.18335316699995,131.39008945800006,correct,138.50435079199994,1.1566142919999718,fall,left,3.0,,,,
stim_set/hard-vcom=2-110.png,none.png,unmotivated,3.0,fall,left,hard,,138.5049867079999,139.640059125,correct,145.44832266699996,1.083797083000036,fall,left,2.0,,,,
stim_set/easy-vcom=3-38.png,none.png,unmotivated,2.5,fall,left,easy,,145.44888445799998,146.84006775,incorrect,151.88442466699996,1.3346847909999724,stand,right,3.0,,,,
stim_set/hard-vcom=2-20.png,none.png,unmotivated,2.25,fall,left,hard,,151.88495687499994,152.74833308300003,correct,157.330202417,0.8072587919999705,fall,left,4.0,,,,
stim_set/hard-345.png,none.png,unmotivated,2.5,stand,right,hard,,157.330754167,158.175100917,correct,163.13239962499995,0.7971875839999711,stand,right,4.0,,,,
stim_set/hard-vcom=3-142.png,none.png,unmotivated,3.25,fall,left,hard,,163.13302633299998,163.998278458,correct,170.29045833299998,0.8093025419999549,fall,left,4.0,,,,
stim_set/hard-367.png,none.png,unmotivated,2.5,stand,right,hard,,170.29107375,171.44125570799997,correct,176.780533042,1.1029212500000083,stand,right,2.0,,,,
stim_set/hard-vcom=4-92.png,none.png,unmotivated,2.75,fall,left,hard,,176.78105441699998,177.7233255,correct,183.35063779200004,0.8850286250000181,fall,left,4.0,,,,
stim_set/hard-244.png,none.png,unmotivated,3.25,stand,right,hard,,183.35118383299996,184.715047583,incorrect,190.50734804200002,1.3072314999999437,fall,left,3.0,,,,
stim_set/hard-391.png,none.png,unmotivated,2.25,stand,right,hard,,190.50784591699997,191.59831875,incorrect,197.49129904200004,1.0384569160000865,fall,left,2.0,,,,
stim_set/easy-vcom=2-94.png,none.png,unmotivated,2.75,fall,left,easy,,197.49183137499998,198.45659183299995,incorrect,203.911464583,0.9121885000000702,stand,right,4.0,,,,
stim_set/hard-vcom=4-142.png,none.png,unmotivated,4.0,fall,left,hard,,203.91207558299996,205.798312667,correct,213.561818875,1.8334777089999084,fall,left,3.0,,,,
stim_set/easy-vcom=3-74.png,none.png,unmotivated,2.25,fall,left,easy,,213.56236254200002,215.43135433299994,correct,221.86001258299999,1.8138902919999964,fall,left,3.0,,,,
stim_set/easy-13.png,none.png,unmotivated,2.5,stand,right,easy,,221.86071633300003,224.34125329200003,correct,230.09281754200003,2.42878912499998,stand,right,3.0,,,,
stim_set/hard-vcom=4-80.png,none.png,unmotivated,3.75,fall,left,hard,,230.09342108299995,231.658017417,correct,238.799687375,1.5132427500000176,fall,left,4.0,,,,
stim_set/hard-369.png,none.png,unmotivated,2.0,stand,right,hard,,238.80025012499996,240.80662195799997,incorrect,245.67235116700002,1.9603331250000335,fall,left,4.0,,,,
stim_set/hard-492.png,none.png,unmotivated,2.0,stand,right,hard,,245.672895125,248.10020283300003,incorrect,253.442031875,2.378126457999997,fall,left,3.0,,,,
stim_set/hard-vcom=1-50.png,none.png,unmotivated,3.75,fall,left,hard,,253.4425765,256.206633583,correct,263.632138833,2.708222957999965,fall,left,3.0,,,,
stim_set/easy-280.png,none.png,unmotivated,3.0,stand,right,easy,,263.632751375,265.70809766699995,correct,271.881467833,2.02857041599998,stand,right,3.0,,,,
stim_set/hard-7.png,none.png,unmotivated,2.25,stand,right,hard,,271.88201033300004,274.033009167,incorrect,278.94709254199995,2.0993417500000082,fall,left,4.0,,,,
stim_set/easy-590.png,none.png,unmotivated,2.5,stand,right,easy,,278.94786212500003,281.77506774999995,correct,286.652647667,2.7751866249999466,stand,right,4.0,,,,
stim_set/hard-600.png,none.png,unmotivated,2.5,stand,right,hard,,286.653167125,289.49005483299993,incorrect,295.36630312499994,2.7905810409999963,fall,left,4.0,,,,
stim_set/easy-411.png,none.png,unmotivated,4.0,stand,right,easy,,295.36689245799994,297.74180120799997,correct,304.56105979200004,2.323081708000018,stand,right,3.0,304.561373875,,,
stim_set/hard-78.png,none.png,unmotivated,2.25,stand,right,hard,311.536287,311.53704670799993,313.35817820799997,incorrect,320.051857625,1.7717528339999262,fall,left,4.0,,,,
stim_set/hard-vcom=2-100.png,none.png,unmotivated,3.25,fall,left,hard,,320.052384167,322.199724792,correct,328.187337417,2.0999084580000726,fall,left,3.0,,,,
stim_set/easy-538.png,none.png,unmotivated,2.5,stand,right,easy,,328.187961333,329.57331575,correct,334.692650375,1.3340097500000638,stand,right,4.0,,,,
stim_set/hard-316.png,none.png,unmotivated,2.0,stand,right,hard,,334.69319804199995,336.40660516699995,incorrect,340.91286416699995,1.6618288340000618,fall,left,3.0,,,,
stim_set/hard-566.png,none.png,unmotivated,3.75,stand,right,hard,,340.913397917,344.01628766700003,incorrect,350.54273916700004,3.05094387500003,fall,left,2.0,,,,
stim_set/easy-164.png,none.png,unmotivated,4.0,stand,right,easy,,350.54327720799995,352.71483483299994,correct,359.10415479200003,2.1154562919999758,stand,right,3.0,,,,
stim_set/hard-382.png,none.png,unmotivated,2.75,stand,right,hard,,359.1047645,362.839866625,incorrect,368.126974333,3.688943833000053,fall,left,3.0,,,,
stim_set/easy-77.png,none.png,unmotivated,3.0,stand,right,easy,,368.12751070799993,371.189840208,correct,376.65691320800005,3.0099883749999212,stand,right,3.0,,,,
stim_set/hard-vcom=4-23.png,none.png,unmotivated,2.5,fall,left,hard,,376.65747241699995,377.74812125,correct,384.22107529199997,1.0382089579999274,fall,left,4.0,,,,
stim_set/hard-vcom=4-147.png,none.png,unmotivated,2.25,fall,left,hard,,384.22171895800005,385.57496816699995,correct,390.36345670800006,1.3009187080000402,fall,left,4.0,,,,
stim_set/hard-549.png,none.png,unmotivated,3.25,stand,right,hard,,390.364275417,393.40640366699995,correct,399.49021808300006,2.987843249999969,stand,right,3.0,,,,
stim_set/hard-2.png,none.png,unmotivated,2.75,stand,right,hard,,399.490762458,404.116373917,incorrect,411.143543542,4.575388915999952,fall,left,3.0,,,,
stim_set/hard-vcom=1-136.png,none.png,unmotivated,2.5,fall,left,hard,,411.14408525,412.45655983300003,correct,418.7655775,1.260081207999974,fall,left,4.0,,,,
stim_set/easy-vcom=2-3.png,none.png,unmotivated,4.0,fall,left,easy,,418.76614075,420.716628875,correct,429.01688366699995,1.9011107919999404,fall,left,3.0,,,,
stim_set/hard-334.png,none.png,unmotivated,2.0,stand,right,hard,,429.017526083,431.71659075,incorrect,437.01002445800003,2.6528679589999906,fall,left,4.0,,,,
stim_set/hard-570.png,none.png,unmotivated,2.25,stand,right,hard,,437.0105915,438.091792708,incorrect,443.13825020799993,1.0290242500000204,fall,left,4.0,,,,
stim_set/hard-49.png,none.png,unmotivated,2.25,stand,right,hard,,443.138756333,447.206363208,incorrect,451.826394792,4.010744334000037,fall,left,2.0,,,,
stim_set/easy-vcom=1-145.png,none.png,unmotivated,3.75,fall,left,easy,,451.82699008300006,453.349345042,correct,461.15901891699997,1.473286499999972,fall,left,3.0,,,,
stim_set/hard-599.png,none.png,unmotivated,3.0,stand,right,hard,,461.159643417,466.214768208,incorrect,472.144490833,5.009111209000025,fall,left,3.0,,,,
stim_set/hard-vcom=2-147.png,none.png,unmotivated,2.5,fall,left,hard,,472.145051,477.207903083,incorrect,482.315113,,,,,,,,
stim_set/hard-vcom=3-82.png,none.png,unmotivated,2.25,fall,left,hard,,482.31570149999993,483.456311375,correct,489.051122917,1.0850814169999694,fall,left,2.0,,,,
stim_set/hard-vcom=4-75.png,none.png,unmotivated,2.5,fall,left,hard,,489.05167070800013,491.799707417,incorrect,497.187387708,2.697084000000132,stand,right,3.0,,,,
stim_set/hard-14.png,none.png,unmotivated,3.25,stand,right,hard,,497.18786679199997,498.9580504170001,incorrect,505.5490474579999,1.7288011670000287,fall,left,3.0,,,,
stim_set/easy-vcom=1-73.png,none.png,unmotivated,2.5,fall,left,easy,,505.54973345800005,508.73137629200005,correct,514.8070372079999,3.13504095899998,fall,left,4.0,,,,
stim_set/easy-vcom=3-142.png,none.png,unmotivated,2.75,fall,left,easy,,514.807635375,517.5730179999999,incorrect,523.062320125,2.7099901670001145,stand,right,3.0,,,,
stim_set/easy-vcom=2-147.png,none.png,unmotivated,3.25,fall,left,easy,,523.0628264999999,524.5416713750002,correct,532.0346305420002,1.4294618330000048,fall,left,3.0,,,,
stim_set/easy-vcom=3-15.png,none.png,unmotivated,2.25,fall,left,easy,,532.035384542,533.7578807079999,incorrect,539.6916202499998,1.6748282089999975,stand,right,2.0,,,,
stim_set/hard-vcom=3-7.png,none.png,unmotivated,2.75,fall,left,hard,,539.6923523749998,542.5164171250002,correct,548.4316174170001,2.7770669170001843,fall,left,3.0,,,,
stim_set/hard-182.png,none.png,unmotivated,4.0,stand,right,hard,,548.4322052919999,552.8741908330001,correct,560.5155554170001,4.401646167000081,stand,right,2.0,,,,
stim_set/hard-vcom=1-130.png,none.png,unmotivated,2.25,fall,left,hard,,560.5162005,564.081410625,correct,569.0430652919999,3.5132220830000733,fall,left,3.0,,,,
stim_set/hard-vcom=3-110.png,none.png,unmotivated,3.0,fall,left,hard,,569.0435944579999,572.7827412500002,correct,580.1215285420001,3.6982082079998686,fall,left,4.0,,,,
stim_set/hard-82.png,none.png,unmotivated,3.75,stand,right,hard,,580.1221515,581.4243159170002,incorrect,589.3111495420001,1.2522192080000425,fall,left,4.0,,,,
stim_set/hard-vcom=1-95.png,none.png,unmotivated,2.0,fall,left,hard,,589.3116514579999,593.6826533330001,incorrect,598.3453167499998,4.324551832999987,stand,right,2.0,,,,
stim_set/easy-vcom=1-12.png,none.png,unmotivated,2.0,fall,left,easy,,598.3458472499998,602.724716208,correct,608.0652311670001,4.327863125000022,fall,left,3.0,,,,
stim_set/hard-132.png,none.png,unmotivated,3.75,stand,right,hard,,608.065881667,610.6562732079999,incorrect,617.3826064169999,2.5380165829999437,fall,left,3.0,,,,
stim_set/hard-40.png,none.png,unmotivated,3.0,stand,right,hard,,617.3831492920001,619.723014167,incorrect,626.8248535419999,2.2844757079999454,fall,left,4.0,,,,
stim_set/hard-280.png,none.png,unmotivated,2.25,stand,right,hard,,626.8256087499999,631.26458725,incorrect,637.6922505,4.382388708000009,fall,left,2.0,,,,
stim_set/easy-vcom=4-126.png,none.png,unmotivated,2.5,fall,left,easy,,637.6927392079999,639.5911133750002,incorrect,645.3415555830001,1.8468709589999437,stand,right,3.0,,,,
stim_set/hard-402.png,none.png,unmotivated,2.5,stand,right,hard,,645.3420837919999,647.106291458,incorrect,653.1020979580001,1.7094336669999848,fall,left,3.0,,,,
stim_set/hard-vcom=4-139.png,none.png,unmotivated,4.0,fall,left,hard,,653.102674708,655.5145931669999,correct,662.4804307500001,2.35908270799996,fall,left,4.0,662.480750875,,,
stim_set/easy-vcom=3-74.png,fall.png,cooperation,2.25,fall,left,easy,,,,,,,,,,,,,
stim_set/hard-566.png,stand.png,cooperation,3.25,stand,right,hard,,,,,,,,,,,,,
stim_set/hard-49.png,fall.png,cooperation,3.0,stand,right,hard,,,,,,,,,,,,,
stim_set/hard-vcom=3-110.png,fall.png,cooperation,2.0,fall,left,hard,,,,,,,,,,,,,
stim_set/hard-367.png,stand.png,cooperation,3.75,stand,right,hard,,,,,,,,,,,,,
stim_set/hard-vcom=2-100.png,stand.png,cooperation,4.0,fall,left,hard,,,,,,,,,,,,,
stim_set/hard-391.png,stand.png,cooperation,2.75,stand,right,hard,,,,,,,,,,,,,
stim_set/hard-600.png,stand.png,cooperation,3.0,stand,right,hard,,,,,,,,,,,,,
stim_set/easy-vcom=1-87.png,fall.png,cooperation,2.5,fall,left,easy,,,,,,,,,,,,,
stim_set/hard-492.png,stand.png,cooperation,2.25,stand,right,hard,,,,,,,,,,,,,
stim_set/hard-vcom=4-147.png,stand.png,cooperation,3.25,fall,left,hard,,,,,,,,,,,,,
stim_set/hard-vcom=1-136.png,stand.png,cooperation,2.75,fall,left,hard,,,,,,,,,,,,,
stim_set/hard-vcom=1-130.png,fall.png,cooperation,2.5,fall,left,hard,,,,,,,,,,,,,
stim_set/easy-vcom=2-20.png,fall.png,cooperation,4.0,fall,left,easy,,,,,,,,,,,,,
stim_set/hard-177.png,stand.png,cooperation,2.0,stand,right,hard,,,,,,,,,,,,,
stim_set/hard-78.png,stand.png,cooperation,2.25,stand,right,hard,,,,,,,,,,,,,
stim_set/hard-564.png,fall.png,cooperation,2.25,stand,right,hard,,,,,,,,,,,,,
stim_set/hard-402.png,stand.png,cooperation,3.75,stand,right,hard,,,,,,,,,,,,,
stim_set/easy-vcom=2-147.png,stand.png,cooperation,3.0,fall,left,easy,,,,,,,,,,,,,
stim_set/easy-538.png,fall.png,cooperation,2.5,stand,right,easy,,,,,,,,,,,,,
stim_set/hard-345.png,stand.png,cooperation,2.25,stand,right,hard,,,,,,,,,,,,,
stim_set/hard-244.png,fall.png,cooperation,2.5,stand,right,hard,,,,,,,,,,,,,
stim_set/hard-2.png,fall.png,cooperation,3.25,stand,right,hard,,,,,,,,,,,,,
stim_set/easy-vcom=1-73.png,fall.png,cooperation,2.5,fall,left,easy,,,,,,,,,,,,,
stim_set/hard-182.png,stand.png,cooperation,2.75,stand,right,hard,,,,,,,,,,,,,
stim_set/easy-13.png,fall.png,cooperation,3.25,stand,right,easy,,,,,,,,,,,,,
stim_set/hard-vcom=1-3.png,fall.png,cooperation,2.25,fall,left,hard,,,,,,,,,,,,,
stim_set/easy-344.png,fall.png,cooperation,2.75,stand,right,easy,,,,,,,,,,,,,
stim_set/hard-vcom=4-80.png,stand.png,cooperation,4.0,fall,left,hard,,,,,,,,,,,,,
stim_set/hard-vcom=2-137.png,fall.png,cooperation,2.25,fall,left,hard,,,,,,,,,,,,,
stim_set/hard-vcom=2-147.png,fall.png,cooperation,2.5,fall,left,hard,,,,,,,,,,,,,
stim_set/hard-382.png,fall.png,cooperation,3.75,stand,right,hard,,,,,,,,,,,,,
stim_set/hard-441.png,fall.png,cooperation,2.0,stand,right,hard,,,,,,,,,,,,,
stim_set/hard-570.png,fall.png,cooperation,2.0,stand,right,hard,,,,,,,,,,,,,
stim_set/easy-vcom=2-3.png,stand.png,cooperation,3.75,fall,left,easy,,,,,,,,,,,,,
stim_set/easy-280.png,fall.png,cooperation,3.0,stand,right,easy,,,,,,,,,,,,,
stim_set/easy-vcom=3-38.png,stand.png,cooperation,2.25,fall,left,easy,,,,,,,,,,,,,
stim_set/hard-vcom=1-95.png,fall.png,cooperation,2.5,fall,left,hard,,,,,,,,,,,,,
stim_set/hard-369.png,fall.png,cooperation,2.5,stand,right,hard,,,,,,,,,,,,,
stim_set/hard-vcom=1-50.png,stand.png,cooperation,4.0,fall,left,hard,,,,,,,,,,,,,
stim_set/hard-321.png,fall.png,cooperation,2.25,stand,right,hard,,,,,,,,,,,,,
stim_set/easy-vcom=3-142.png,fall.png,cooperation,3.25,fall,left,easy,,,,,,,,,,,,,
stim_set/hard-316.png,fall.png,cooperation,2.5,stand,right,hard,,,,,,,,,,,,,
stim_set/hard-vcom=2-20.png,stand.png,cooperation,2.0,fall,left,hard,,,,,,,,,,,,,
stim_set/easy-164.png,fall.png,cooperation,3.75,stand,right,easy,,,,,,,,,,,,,
stim_set/easy-vcom=4-69.png,stand.png,cooperation,4.0,fall,left,easy,,,,,,,,,,,,,
stim_set/hard-334.png,stand.png,cooperation,2.75,stand,right,hard,,,,,,,,,,,,,
stim_set/hard-132.png,stand.png,cooperation,3.0,stand,right,hard,,,,,,,,,,,,,
stim_set/easy-77.png,fall.png,cooperation,2.5,stand,right,easy,,,,,,,,,,,,,
stim_set/easy-vcom=1-12.png,stand.png,cooperation,2.25,fall,left,easy,,,,,,,,,,,,,
stim_set/hard-214.png,stand.png,cooperation,3.25,stand,right,hard,,,,,,,,,,,,,
stim_set/hard-vcom=4-139.png,stand.png,cooperation,2.75,fall,left,hard,,,,,,,,,,,,,
stim_set/easy-vcom=4-126.png,fall.png,cooperation,2.5,fall,left,easy,,,,,,,,,,,,,
stim_set/hard-vcom=3-142.png,fall.png,cooperation,4.0,fall,left,hard,,,,,,,,,,,,,
stim_set/hard-vcom=4-75.png,fall.png,cooperation,2.0,fall,left,hard,,,,,,,,,,,,,
stim_set/hard-vcom=4-142.png,stand.png,cooperation,2.25,fall,left,hard,,,,,,,,,,,,,
stim_set/hard-549.png,stand.png,cooperation,2.25,stand,right,hard,,,,,,,,,,,,,
stim_set/hard-vcom=3-145.png,stand.png,cooperation,3.75,fall,left,hard,,,,,,,,,,,,,
stim_set/easy-vcom=3-15.png,stand.png,cooperation,3.0,fall,left,easy,,,,,,,,,,,,,
stim_set/hard-vcom=1-30.png,fall.png,cooperation,2.5,fall,left,hard,,,,,,,,,,,,,
stim_set/hard-vcom=4-92.png,stand.png,cooperation,2.25,fall,left,hard,,,,,,,,,,,,,
stim_set/hard-21.png,stand.png,cooperation,2.5,stand,right,hard,,,,,,,,,,,,,
stim_set/hard-280.png,stand.png,cooperation,3.25,stand,right,hard,,,,,,,,,,,,,
stim_set/hard-vcom=2-110.png,fall.png,cooperation,2.5,fall,left,hard,,,,,,,,,,,,,
stim_set/hard-vcom=3-7.png,fall.png,cooperation,2.75,fall,left,hard,,,,,,,,,,,,,
stim_set/hard-vcom=3-34.png,stand.png,cooperation,3.25,fall,left,hard,,,,,,,,,,,,,
stim_set/easy-vcom=4-19.png,stand.png,cooperation,2.25,fall,left,easy,,,,,,,,,,,,,
stim_set/hard-7.png,stand.png,cooperation,2.75,stand,right,hard,,,,,,,,,,,,,
stim_set/easy-590.png,fall.png,cooperation,4.0,stand,right,easy,,,,,,,,,,,,,
stim_set/hard-82.png,stand.png,cooperation,2.25,stand,right,hard,,,,,,,,,,,,,
stim_set/hard-vcom=4-23.png,fall.png,cooperation,3.0,fall,left,hard,,,,,,,,,,,,,
stim_set/hard-91.png,fall.png,cooperation,3.75,stand,right,hard,,,,,,,,,,,,,
stim_set/hard-599.png,fall.png,cooperation,2.0,stand,right,hard,,,,,,,,,,,,,
stim_set/easy-411.png,stand.png,cooperation,2.0,stand,right,easy,,,,,,,,,,,,,
stim_set/easy-vcom=1-145.png,stand.png,cooperation,3.75,fall,left,easy,,,,,,,,,,,,,
stim_set/hard-40.png,stand.png,cooperation,3.0,stand,right,hard,,,,,,,,,,,,,
stim_set/hard-vcom=2-16.png,stand.png,cooperation,2.25,fall,left,hard,,,,,,,,,,,,,
stim_set/hard-14.png,fall.png,cooperation,2.5,stand,right,hard,,,,,,,,,,,,,
stim_set/hard-vcom=3-82.png,fall.png,cooperation,2.5,fall,left,hard,,,,,,,,,,,,,
stim_set/easy-vcom=2-94.png,stand.png,cooperation,4.0,fall,left,easy,,,,,,,,,,,,,
stim_set/easy-vcom=3-74.png,fall.png,competition,2.25,fall,left,easy,0.000148542000033558,0.0007459170001311577,6.006628125000134,incorrect,10.699524750000137,0.9622749170000588,stand,right,3,,,,1.0125213750000057
stim_set/hard-vcom=1-136.png,fall.png,competition,3.25,fall,left,hard,,10.700274417000173,17.47449487500012,correct,24.011714833000042,1.741604334000158,fall,left,2,,,,11.710100167000064
stim_set/hard-369.png,fall.png,competition,3.0,stand,right,hard,,24.012257333000207,30.081581000000142,correct,36.50739791700016,1.0361647500001254,stand,right,4,,,,25.022585458000094
stim_set/hard-vcom=2-147.png,stand.png,competition,2.0,fall,left,hard,,36.507930375000115,43.72314141700008,correct,48.95463791700013,2.182636958000103,fall,left,2,,,,37.51812170800008
stim_set/hard-vcom=2-20.png,stand.png,competition,3.75,fall,left,hard,,48.955426333000105,56.13136670800009,correct,62.94323695800017,2.1347662090001904,fall,left,2,,,,49.965628667000146
stim_set/easy-vcom=1-73.png,fall.png,competition,4.0,fall,left,easy,,62.9438526670001,69.37489912500018,incorrect,76.16945658300006,1.4031980419999854,stand,right,3,,,,63.95442287500009
stim_set/hard-132.png,fall.png,competition,2.75,stand,right,hard,,76.17002008300005,82.32316195800013,incorrect,88.00060100000019,1.1145712499999263,fall,left,4,,,,77.18045091700014
stim_set/easy-vcom=2-20.png,stand.png,competition,3.0,fall,left,easy,,88.00117616700004,96.13265445800016,correct,101.91437941700019,3.0982939160001024,fall,left,3,,,,89.01183345800018
stim_set/hard-280.png,fall.png,competition,2.5,stand,right,hard,,101.91496462500004,108.01485841700014,correct,112.83811937500013,1.057803333000038,stand,right,4,,,,102.92494829200018
stim_set/hard-600.png,fall.png,competition,2.25,stand,right,hard,,112.8386512080001,119.15659304200017,correct,123.81942937500003,1.2853432500000963,stand,right,2,,,,113.8484893750001
stim_set/hard-334.png,stand.png,competition,3.25,stand,right,hard,,123.82005670800004,130.1148749580002,incorrect,136.35547650000012,1.2577296249999108,fall,left,3,,,,124.830743708
stim_set/easy-vcom=1-12.png,stand.png,competition,2.75,fall,left,easy,,136.3560231250001,142.506408792,correct,149.47461579200012,1.1078164159998778,fall,left,2,,,,137.36634012500008
stim_set/easy-vcom=2-147.png,fall.png,competition,2.5,fall,left,easy,,149.47513700000013,158.5231342500001,correct,164.2863896670001,4.007107167000186,fall,left,2,,,,150.48548070800007
stim_set/easy-590.png,stand.png,competition,4.0,stand,right,easy,,164.28711229200007,171.07452683300016,correct,178.19396125000003,1.7494537910001782,stand,right,3,,,,165.29783995800017
stim_set/hard-91.png,fall.png,competition,2.0,stand,right,hard,,178.19455137500017,184.33287225000004,correct,189.40176791700014,1.1033461249999164,stand,right,3,,,,179.2047634170001
stim_set/hard-vcom=1-95.png,stand.png,competition,2.25,fall,left,hard,,189.40232583300008,196.86446850000016,incorrect,201.4912015,2.4239552090000416,stand,right,3,,,,190.41270375
stim_set/hard-402.png,stand.png,competition,2.25,stand,right,hard,,201.49177866700006,207.62312704200008,incorrect,212.739904583,1.0893668329999855,fall,left,3,,,,202.50203041700001
stim_set/hard-49.png,fall.png,competition,3.75,stand,right,hard,,212.74044158300012,221.29811191700014,incorrect,229.01661883300017,3.514581165999971,fall,left,2,,,,213.75046866700018
stim_set/easy-vcom=4-69.png,stand.png,competition,3.0,fall,left,easy,,229.01721362500007,235.04794450000009,incorrect,241.48264929200013,0.9881492500001059,stand,right,3,,,,230.02800604200002
stim_set/easy-vcom=3-38.png,stand.png,competition,2.5,fall,left,easy,,241.48318320800013,248.5896663330002,correct,253.76456558300015,2.0642886250000174,fall,left,2,,,,242.49374516700004
stim_set/hard-vcom=3-7.png,fall.png,competition,2.25,fall,left,hard,,253.7651175000001,262.0896635830002,incorrect,268.132404208,3.2861142919998656,stand,right,2,,,,254.775440333
stim_set/easy-vcom=3-142.png,stand.png,competition,2.5,fall,left,easy,,268.1329410000001,274.5158133330001,incorrect,280.231538,1.3474902499999644,stand,right,3,,,,269.143222958
stim_set/hard-345.png,stand.png,competition,3.25,stand,right,hard,,280.23226625000007,287.0166444170002,correct,292.72300195800017,1.7508516249999957,stand,right,4,,,,281.242722875
stim_set/easy-164.png,stand.png,competition,2.5,stand,right,easy,,292.72354529200015,299.00635954200015,correct,304.62343662500007,1.2394961249999596,stand,right,4,,,,293.73406950000003
stim_set/hard-2.png,fall.png,competition,2.75,stand,right,hard,,304.6239360000002,311.348072625,correct,316.990712583,1.682858957999997,stand,right,3,,,,305.6341154170002
stim_set/hard-vcom=4-75.png,stand.png,competition,3.25,fall,left,hard,,316.991240458,322.92286654200007,correct,328.771297625,0.8891769999997905,fall,left,2,,,,318.0013577500001
stim_set/hard-40.png,stand.png,competition,2.25,stand,right,hard,,328.77185687500014,337.0731178330002,incorrect,342.8528657920001,3.259864124999922,fall,left,3,,,,329.7823097080002
stim_set/hard-vcom=2-100.png,fall.png,competition,2.75,fall,left,hard,,342.85352450000005,352.6809397500001,incorrect,358.2961767500001,4.788251791999983,stand,right,1,,,,343.8644132080001
stim_set/hard-vcom=3-145.png,stand.png,competition,4.0,fall,left,hard,,358.29681029200015,364.8146797920001,incorrect,371.72142362500017,1.4843771250000373,stand,right,3,,,,359.3072718330002
stim_set/hard-82.png,fall.png,competition,2.25,stand,right,hard,,371.7220822080001,380.20788058300013,correct,385.51596258300015,3.449795457999926,stand,right,2,,,,372.7322908330002
stim_set/easy-vcom=2-3.png,fall.png,competition,2.5,fall,left,easy,,385.5165181670002,391.564604292,incorrect,396.893331083,1.0073177500000838,stand,right,3,,,,386.52715879200014
stim_set/hard-566.png,fall.png,competition,3.75,stand,right,hard,,396.893871,404.88242337500014,correct,411.66286945800016,2.951071875000025,stand,right,2,,,,397.9039002080001
stim_set/hard-214.png,stand.png,competition,2.0,stand,right,hard,,411.6635865830001,420.974366958,incorrect,428.2261033750001,4.2734622919999765,fall,left,2,,,,412.67396529200005
stim_set/easy-vcom=4-19.png,fall.png,competition,2.0,fall,left,easy,,428.22664012500013,435.1061265000001,incorrect,439.6096661250001,1.8373935829999937,stand,right,4,,,,429.23682758300015
stim_set/easy-280.png,fall.png,competition,3.75,stand,right,easy,,439.61023216700005,445.8167413330002,correct,452.0315765,1.1726835409999694,stand,right,5,,,,440.62052975000006
stim_set/hard-321.png,stand.png,competition,3.0,stand,right,hard,,452.0320670420001,458.031327833,incorrect,464.0570646250003,0.9622180000001208,fall,left,4,,,,453.04198858300015
stim_set/hard-182.png,stand.png,competition,2.25,stand,right,hard,,464.0576081670001,473.822837917,incorrect,481.15843462500015,4.732634583000163,fall,left,2,,,,465.0680188330002
stim_set/hard-vcom=3-34.png,stand.png,competition,2.5,fall,left,hard,,481.159167625,489.2743678750003,incorrect,494.90919462500005,3.077386208000007,stand,right,3,,,,482.1696323750002
stim_set/easy-538.png,fall.png,competition,2.5,stand,right,easy,,494.9097369169999,500.83122541700004,correct,505.9489277920002,0.8848083329999099,stand,right,5,,,,495.91993125
stim_set/hard-244.png,stand.png,competition,4.0,stand,right,hard,,505.9496505000002,515.106141833,correct,522.120905625,4.113214374999643,stand,right,3,522.1212206670002,,,506.9605754170002
stim_set/easy-13.png,stand.png,competition,2.25,stand,right,easy,526.8253622920001,526.8262299170001,533.3162741250003,correct,539.4922607500002,1.4492637079997621,stand,right,3,,,,527.839612583
stim_set/hard-vcom=4-23.png,stand.png,competition,3.25,fall,left,hard,,539.4928445830001,545.3896452500003,correct,551.315772208,0.8572193330001028,fall,left,4,,,,540.5034985830002
stim_set/hard-vcom=4-80.png,fall.png,competition,2.5,fall,left,hard,,551.3164843330001,560.3326147500002,correct,565.757054792,3.9790264999996907,fall,left,3,,,,552.3265741250002
stim_set/easy-77.png,stand.png,competition,2.0,stand,right,easy,,565.7575873750002,571.7311405830001,correct,576.1533857919999,0.9341562910003631,stand,right,4,,,,566.7686167080001
stim_set/hard-177.png,fall.png,competition,3.75,stand,right,hard,,576.153909833,586.1978289170002,incorrect,592.2128305830001,,,,,,,,577.1644646250002
stim_set/easy-vcom=2-94.png,fall.png,competition,4.0,fall,left,easy,,592.2133810830001,599.2240905829999,incorrect,606.161159667,1.9780463339998278,stand,right,3,,,,593.2234088330001
stim_set/hard-vcom=1-30.png,fall.png,competition,2.75,fall,left,hard,,606.161697083,615.0811210420002,correct,621.7013113749999,3.882205208999949,fall,left,2,,,,607.1719336670003
stim_set/easy-vcom=3-15.png,fall.png,competition,3.0,fall,left,easy,,621.701897292,628.8478494999999,incorrect,634.8569132500002,2.106887583000116,stand,right,3,,,,622.7122412920003
stim_set/hard-vcom=1-3.png,stand.png,competition,2.5,fall,left,hard,,634.8574577080003,643.0409164580001,correct,649.616386958,3.149559416000102,fall,left,3,,,,635.8677398750001
stim_set/easy-411.png,stand.png,competition,2.25,stand,right,easy,,649.6169489580002,655.7824385829999,correct,661.0113041250002,1.1281514170000264,stand,right,4,,,,650.6274029169999
stim_set/easy-344.png,fall.png,competition,3.25,stand,right,easy,,661.011845083,666.8494706669999,correct,672.563737125,0.8046638750001875,stand,right,4,,,,662.0222022920002
stim_set/hard-vcom=3-142.png,fall.png,competition,2.75,fall,left,hard,,672.5643008330003,678.5894467500002,incorrect,683.7190081670001,0.9829376669999874,stand,right,3,,,,673.5744975420002
stim_set/hard-vcom=3-110.png,stand.png,competition,2.5,fall,left,hard,,683.7195497500002,691.6492064580002,correct,697.8785438330001,2.9020780840000953,fall,left,2,,,,684.730216375
stim_set/hard-441.png,stand.png,competition,4.0,stand,right,hard,,697.8790308749999,703.972855042,correct,712.6014945420002,1.0567229169996608,stand,right,3,,,,698.8892505419999
stim_set/hard-570.png,stand.png,competition,2.0,stand,right,hard,,712.6020476250001,721.9060952079999,incorrect,726.8812912500002,4.26054433399986,fall,left,2,,,,713.6126977500003
stim_set/hard-492.png,fall.png,competition,2.25,stand,right,hard,,726.8818302079999,734.2311924169999,correct,738.8355571669999,2.30955374999985,stand,right,3,,,,727.8923434170001
stim_set/hard-vcom=3-82.png,stand.png,competition,2.25,fall,left,hard,,738.8360686250003,747.9143785420001,incorrect,752.5231749580003,4.037207249999938,stand,right,3,,,,739.8469835000001
stim_set/hard-vcom=1-50.png,fall.png,competition,3.75,fall,left,hard,,752.5237935,760.2311721250003,correct,767.608610542,2.6647578329998396,fall,left,2,,,,753.533995792
stim_set/hard-vcom=2-137.png,stand.png,competition,3.0,fall,left,hard,,767.6093156669999,775.731128167,incorrect,782.3478520829999,3.0851873340002385,stand,right,3,,,,768.6200427920003
stim_set/hard-vcom=4-147.png,stand.png,competition,2.5,fall,left,hard,,782.348490333,792.191059667,correct,798.3422969170001,4.803907125000023,fall,left,3,,,,783.3593176670001
stim_set/hard-599.png,stand.png,competition,2.25,stand,right,hard,,798.3428277500002,807.7644020420003,incorrect,813.31633225,4.38912849999997,fall,left,2,,,,799.353299208
stim_set/hard-vcom=4-139.png,fall.png,competition,2.5,fall,left,hard,,813.3169359580002,820.4641314579999,incorrect,826.2859721670002,2.108555249999881,stand,right,3,,,,814.3277967500003
stim_set/hard-vcom=1-130.png,fall.png,competition,3.25,fall,left,hard,,826.2866880830002,834.48085425,incorrect,841.3740881250001,3.157004749999942,stand,right,3,,,,827.2969621249999
stim_set/easy-vcom=1-87.png,stand.png,competition,2.5,fall,left,easy,,841.3746622920003,849.265560542,correct,854.6608780000001,2.8544312080002783,fall,left,3,,,,842.384942958
stim_set/hard-549.png,stand.png,competition,2.75,stand,right,hard,,854.6614092919999,863.0991603329999,correct,869.128301625,3.402605791000042,stand,right,3,,,,855.6721239580002
stim_set/hard-391.png,stand.png,competition,3.25,stand,right,hard,,869.1289126249999,877.155875333,incorrect,888.2922860829999,2.9874382500001957,fall,left,2,,,,870.1401368330003
stim_set/hard-vcom=2-110.png,fall.png,competition,2.25,fall,left,hard,,888.2928342079999,894.5893424999999,incorrect,899.2434262920001,1.2598907500000678,stand,right,3,,,,889.3029646670002
stim_set/hard-vcom=4-142.png,fall.png,competition,2.75,fall,left,hard,,899.2440797080003,905.314425042,incorrect,910.3752832079999,1.0316230830003406,stand,right,3,,,,900.2542585830001
stim_set/hard-564.png,stand.png,competition,4.0,stand,right,hard,,910.3758540419999,919.5058918750001,correct,926.5126413329999,4.088440874999833,stand,right,2,,,,911.3858277080003
stim_set/hard-vcom=2-16.png,stand.png,competition,2.25,fall,left,hard,,926.5131811250003,932.5643727080001,correct,938.182004542,1.0070957500001896,fall,left,1,,,,927.5241310420001
stim_set/easy-vcom=4-126.png,fall.png,competition,3.0,fall,left,easy,,938.182729875,945.8643754580003,incorrect,951.3693077080002,2.6379787920000126,stand,right,2,,,,939.193207708
stim_set/hard-vcom=4-92.png,fall.png,competition,3.75,fall,left,hard,,951.3698599580002,958.8473750420003,incorrect,965.6474405419999,2.434880583999984,stand,right,3,,,,952.379960875
stim_set/hard-7.png,fall.png,competition,2.0,stand,right,hard,,965.6480114579999,975.7058756669999,incorrect,979.58517325,,,,,,,,966.6584994580003
stim_set/hard-382.png,fall.png,competition,2.0,stand,right,hard,,979.585792542,985.7905153750003,correct,990.5534064170001,1.1774813339998218,stand,right,2,,,,980.5961739580002
stim_set/hard-316.png,stand.png,competition,3.75,stand,right,hard,,990.5539695420002,997.305899208,incorrect,1004.055109167,1.7136230000000978,fall,left,3,,,,991.5643368750002
stim_set/hard-367.png,fall.png,competition,3.0,stand,right,hard,,1004.055911375,1011.766049375,correct,1017.056558833,2.676103583999975,stand,right,3,,,,1005.0663987920002
stim_set/hard-21.png,stand.png,competition,2.25,stand,right,hard,,1017.0571051669999,1023.630970958,incorrect,1028.5399675419999,1.5354248339999685,fall,left,2,,,,1018.0675657080001
stim_set/hard-78.png,fall.png,competition,2.5,stand,right,hard,,1028.540506792,1037.6487459170003,incorrect,1043.8235798330002,4.073448208000173,fall,left,2,,,,1029.550278542
stim_set/easy-vcom=1-145.png,stand.png,competition,2.5,fall,left,easy,,1043.8241402500003,1052.8976347920002,correct,1059.093782042,4.031868000000031,fall,left,2,,,,1044.8349268750003
stim_set/hard-14.png,fall.png,competition,4.0,stand,right,hard,,1059.094371667,1065.1141561250001,correct,1072.1619772080003,0.9866179169998759,stand,right,3,1072.1623008750003,,,1060.1051669170001
stim_set/hard-402.png,stand.png,cooperation,3.75,stand,right,hard,,,,,,,,,,,,,
stim_set/hard-564.png,stand.png,competition,4.0,stand,right,hard,4.583999952956219e-06,0.002154291999886482,6.14463420900006,incorrect,14.213084792000018,1.0998811250001381,fall,left,3,14.213591624999935,,,1.017818084000055
