towers,bet,condition,iti,corr_choice,corr_key,difficulty,block_start,trial_start,stim_on,acc,rt,part_choice,part_key,confidence,trial_end,block_end,updated_score,condition_first,cue_on,condition_second
stim_set/easy-vcom=2-20.png,none.png,unmotivated,2.25,fall,left,easy,4.04199818149209e-06,0.0028173749997222326,1.541954332999012,correct,1.4837263330009591,fall,left,4.0,6.7518773749980046,,255.0,competition,,cooperation
stim_set/easy-vcom=4-19.png,none.png,unmotivated,3.25,fall,left,easy,,6.753111874997558,8.341882791999524,incorrect,1.532353165999666,stand,right,4.0,15.126926375000036,,465.0,,,
stim_set/hard-vcom=2-137.png,none.png,unmotivated,3.0,fall,left,hard,,15.127517000000806,16.576723124999262,correct,1.4037442919980094,fall,left,4.0,23.164418666998248,,720.0,,,
stim_set/hard-vcom=3-34.png,none.png,unmotivated,2.0,fall,left,hard,,23.16492662499877,24.333414582997648,correct,1.1113136670028323,fall,left,4.0,29.43551054199997,,,,,
stim_set/hard-564.png,none.png,unmotivated,3.75,stand,right,hard,,29.436231957999553,30.52511600000071,incorrect,1.032878250000067,fall,left,4.0,37.68410824999955,,,,,
stim_set/hard-21.png,none.png,unmotivated,4.0,stand,right,hard,,37.68464662499901,40.25011962499775,correct,2.5130360830007703,stand,right,3.0,47.78014729200004,,,,,
stim_set/hard-vcom=3-145.png,none.png,unmotivated,2.75,fall,left,hard,,47.78067637499771,49.7668950829975,incorrect,1.9392805830029831,stand,right,3.0,56.305818500000896,,,,,
stim_set/easy-vcom=1-87.png,none.png,unmotivated,3.0,fall,left,easy,,56.30647945799865,59.67508974999872,correct,3.313437458000408,fall,left,3.0,65.55450270800065,,,,,
stim_set/hard-vcom=2-16.png,none.png,unmotivated,2.5,fall,left,hard,,65.55513054199764,67.78509858300093,correct,2.177774625000893,fall,left,4.0,73.03125116699813,,,,,
stim_set/hard-91.png,none.png,unmotivated,2.25,stand,right,hard,,73.03178783299882,75.47494879199803,correct,2.389324542000395,stand,right,3.0,82.14534862499931,,,,,
stim_set/hard-214.png,none.png,unmotivated,3.25,stand,right,hard,,82.14597945800051,86.89170741699854,incorrect,4.689788084000611,fall,left,2.0,93.54322312499792,,,,,
stim_set/hard-vcom=1-3.png,none.png,unmotivated,2.75,fall,left,hard,,93.54377854199993,95.20837245800068,correct,1.6118602079986886,fall,left,4.0,101.45862791699983,,,,,
stim_set/hard-441.png,none.png,unmotivated,2.5,stand,right,hard,,101.45917079200079,103.34990320799987,correct,1.8401478750020035,stand,right,3.0,109.03114008299966,,,,,
stim_set/easy-344.png,none.png,unmotivated,4.0,stand,right,easy,,109.03184629200041,110.75158129199914,correct,1.6730031669976595,stand,right,4.0,117.45097391699892,,,,,
stim_set/hard-177.png,none.png,unmotivated,2.0,stand,right,hard,,117.45145475000028,119.53334324999744,incorrect,2.0350847500012605,fall,left,3.0,124.35616033299813,,,,,
stim_set/hard-321.png,none.png,unmotivated,2.25,stand,right,hard,,124.35677062499964,128.40149816700068,incorrect,3.99831166599688,fall,left,4.0,134.03865929200035,,,,,
stim_set/easy-vcom=4-69.png,none.png,unmotivated,2.25,fall,left,easy,,134.03919879199748,136.14365308299966,incorrect,2.0533676670020213,stand,right,3.0,143.24664958299763,,,,,
stim_set/hard-vcom=1-30.png,none.png,unmotivated,3.75,fall,left,hard,,143.2472778329975,145.53319029200063,correct,2.2359481249986857,fall,left,3.0,152.88216691699932,,,,,
stim_set/hard-vcom=2-110.png,none.png,unmotivated,3.0,fall,left,hard,,152.88278854199962,157.95136858299884,incorrect,,,,,163.7631562079987,,,,,
stim_set/easy-vcom=3-38.png,none.png,unmotivated,2.5,fall,left,easy,,163.7637519999989,166.0430506249977,correct,2.227962624998326,fall,left,2.0,171.03926279200095,,,,,
stim_set/hard-vcom=2-20.png,none.png,unmotivated,2.25,fall,left,hard,,171.03986874999828,173.7935312080008,correct,2.70230495800206,fall,left,3.0,179.74247291699794,,,,,
stim_set/hard-345.png,none.png,unmotivated,2.5,stand,right,hard,,179.74300312500054,181.20818108299858,correct,1.4127897920006944,stand,right,3.0,186.83307216699902,,,,,
stim_set/hard-vcom=3-142.png,none.png,unmotivated,3.25,fall,left,hard,,186.83363291699789,190.7748816669992,incorrect,3.884683500000392,stand,right,2.0,196.412979124998,,,,,
stim_set/hard-367.png,none.png,unmotivated,2.5,stand,right,hard,,196.41353462500047,198.47470508300103,correct,2.00919341700137,stand,right,4.0,204.05519645800086,,,,,
stim_set/hard-vcom=4-92.png,none.png,unmotivated,2.75,fall,left,hard,,204.05575437500008,207.43319216699814,correct,3.3208459999987103,fall,left,3.0,213.5132550419985,,,,,
stim_set/hard-244.png,none.png,unmotivated,3.25,stand,right,hard,,213.51380383300057,217.18314179200024,correct,3.613091291001184,stand,right,4.0,223.13280483299968,,,,,
stim_set/hard-391.png,none.png,unmotivated,2.25,stand,right,hard,,223.1333724169999,226.00968404200103,correct,2.829399874997762,stand,right,2.0,230.60465766699775,,,,,
stim_set/easy-vcom=2-94.png,none.png,unmotivated,2.75,fall,left,easy,,230.6052311669992,233.5763557499995,correct,2.9239150419998623,fall,left,2.0,239.33714116699767,,,,,
stim_set/hard-vcom=4-142.png,none.png,unmotivated,4.0,fall,left,hard,,239.33769054200093,241.7852931669986,incorrect,2.3990691660001167,stand,right,3.0,248.08997329200062,,,,,
stim_set/easy-vcom=3-74.png,none.png,unmotivated,2.25,fall,left,easy,,248.09076966700013,250.19302049999897,correct,2.051647750002303,fall,left,4.0,256.0465046669997,,,,,
stim_set/easy-13.png,none.png,unmotivated,2.5,stand,right,easy,,256.04704895800023,257.77689691699925,correct,1.6775930830008292,stand,right,5.0,263.27074441700097,,,,,
stim_set/hard-vcom=4-80.png,none.png,unmotivated,3.75,fall,left,hard,,263.2713403749985,265.0507991669984,correct,1.728309458001604,fall,left,3.0,272.25043441699745,,,,,
stim_set/hard-369.png,none.png,unmotivated,2.0,stand,right,hard,,272.2511479579989,274.30813149999807,correct,2.0108924170017417,stand,right,3.0,280.1175951669975,,,,,
stim_set/hard-492.png,none.png,unmotivated,2.0,stand,right,hard,,280.1181175419988,282.96810441699927,correct,2.801228832999186,stand,right,4.0,287.3219603329999,,,,,
stim_set/hard-vcom=1-50.png,none.png,unmotivated,3.75,fall,left,hard,,287.3224899579982,290.20141283299745,correct,2.8272805410015285,fall,left,2.0,296.92172470799784,,,,,
stim_set/easy-280.png,none.png,unmotivated,3.0,stand,right,easy,,296.9222612079975,298.5329512079988,correct,1.5587897090008482,stand,right,4.0,304.28270116699787,,,,,
stim_set/hard-7.png,none.png,unmotivated,2.25,stand,right,hard,,304.28329770799974,307.2746982079989,incorrect,2.9342835409988766,fall,left,2.0,312.2288041669999,,,,,
stim_set/easy-590.png,none.png,unmotivated,2.5,stand,right,easy,,312.22937654199995,313.62468629199793,correct,1.3388303749998158,stand,right,3.0,319.7269108750006,,,,,
stim_set/hard-600.png,none.png,unmotivated,2.5,stand,right,hard,,319.727396667,322.2331736669985,incorrect,2.459186209001928,fall,left,4.0,327.91173204200095,,,,,
stim_set/easy-411.png,none.png,unmotivated,4.0,stand,right,easy,,327.91228458299884,329.718139042001,correct,1.754213209002046,stand,right,3.0,336.6821920830007,336.68253329199797,,,,
stim_set/hard-78.png,none.png,unmotivated,2.25,stand,right,hard,341.10647741700086,341.1073030000007,342.69966916699923,incorrect,1.5375182919997314,fall,left,4.0,347.7811727499975,,,,,
stim_set/hard-vcom=2-100.png,none.png,unmotivated,3.25,fall,left,hard,,347.78180270799936,349.8744240419983,correct,2.0404420829981973,fall,left,3.0,355.42968566700074,,,,,
stim_set/easy-538.png,none.png,unmotivated,2.5,stand,right,easy,,355.43039158299865,357.12603166699773,correct,1.6503895829991961,stand,right,3.0,362.25446629200087,,,,,
stim_set/hard-316.png,none.png,unmotivated,2.0,stand,right,hard,,362.25501783299836,364.3346324999984,correct,2.0326299579974147,stand,right,2.0,368.7627245420008,,,,,
stim_set/hard-566.png,none.png,unmotivated,3.75,stand,right,hard,,368.763273624998,371.0680142079982,incorrect,2.2523450409971697,fall,left,3.0,376.92088704200063,,,,,
stim_set/easy-164.png,none.png,unmotivated,4.0,stand,right,easy,,376.9214414169983,378.526171417001,correct,1.5530982920026872,stand,right,3.0,384.8106957079982,,,,,
stim_set/hard-382.png,none.png,unmotivated,2.75,stand,right,hard,,384.81148479200056,387.5008627919997,correct,2.648705749998044,stand,right,2.0,393.33650058299827,,,,,
stim_set/easy-77.png,none.png,unmotivated,3.0,stand,right,easy,,393.3370677919993,394.534717333001,correct,1.1501627919969906,stand,right,4.0,400.29016724999747,,,,,
stim_set/hard-vcom=4-23.png,none.png,unmotivated,2.5,fall,left,hard,,400.290747250001,402.4826624579983,correct,2.1394196250003006,fall,left,2.0,408.0405623330007,,,,,
stim_set/hard-vcom=4-147.png,none.png,unmotivated,2.25,fall,left,hard,,408.04116654199964,410.19272366699806,correct,2.0993887080003333,fall,left,4.0,415.51639462499946,,,,,
stim_set/hard-549.png,none.png,unmotivated,3.25,stand,right,hard,,415.51692116699996,417.6077475829989,correct,2.0374630829974194,stand,right,2.0,424.51020766700094,,,,,
stim_set/hard-2.png,none.png,unmotivated,2.75,stand,right,hard,,424.5107696669984,426.5846560419996,correct,2.023944999997184,stand,right,4.0,431.976729916998,,,,,
stim_set/hard-vcom=1-136.png,none.png,unmotivated,2.5,fall,left,hard,,431.9773827079989,434.916158,correct,2.8858704580015915,fall,left,2.0,440.4061967919988,,,,,
stim_set/easy-vcom=2-3.png,none.png,unmotivated,4.0,fall,left,easy,,440.4067718749975,443.4845701669983,correct,3.0278097090013034,fall,left,3.0,451.6772109169978,,,,,
stim_set/hard-334.png,none.png,unmotivated,2.0,stand,right,hard,,451.6779483749997,454.2909564580005,incorrect,2.5627327080001123,fall,left,3.0,459.6839122499987,,,,,
stim_set/hard-570.png,none.png,unmotivated,2.25,stand,right,hard,,459.6844809579997,461.29937824999803,incorrect,1.5580127499997616,fall,left,5.0,466.6196999579988,,,,,
stim_set/hard-49.png,none.png,unmotivated,2.25,stand,right,hard,,466.6203425829989,469.15150050000017,correct,2.4778408750025847,stand,right,2.0,473.78076166699975,,,,,
stim_set/easy-vcom=1-145.png,none.png,unmotivated,3.75,fall,left,easy,,473.78130295799934,475.9593744579979,correct,2.1284264580026497,fall,left,2.0,482.7038175419984,,,,,
stim_set/hard-599.png,none.png,unmotivated,3.0,stand,right,hard,,482.7043894169983,485.2493657079976,incorrect,2.499018541999249,fall,left,2.0,491.1219717079985,,,,,
stim_set/hard-vcom=2-147.png,none.png,unmotivated,2.5,fall,left,hard,,491.12272458299776,493.30772558299935,correct,2.1385614999999234,fall,left,2.0,498.61404087499983,,,,,
stim_set/hard-vcom=3-82.png,none.png,unmotivated,2.25,fall,left,hard,,498.6146609579992,500.56789799999746,correct,1.9032954590002191,fall,left,4.0,506.76665420800055,,,,,
stim_set/hard-vcom=4-75.png,none.png,unmotivated,2.5,fall,left,hard,,506.76720262500015,510.4426371249974,incorrect,3.6248711660009576,stand,right,2.0,516.0463482079977,,,,,
stim_set/hard-14.png,none.png,unmotivated,3.25,stand,right,hard,,516.0468564580004,518.9426729999977,correct,2.855127083003026,stand,right,3.0,524.8920519169989,,,,,
stim_set/easy-vcom=1-73.png,none.png,unmotivated,2.5,fall,left,easy,,524.8925978749976,527.5344574999981,incorrect,2.6004023750028864,stand,right,3.0,532.5103719580002,,,,,
stim_set/easy-vcom=3-142.png,none.png,unmotivated,2.75,fall,left,easy,,532.510972832999,535.6841284580005,incorrect,3.1227587920002406,stand,right,3.0,541.0729894169999,,,,,
stim_set/easy-vcom=2-147.png,none.png,unmotivated,3.25,fall,left,easy,,541.0735623330002,544.6427986669987,incorrect,3.5200193330019838,stand,right,3.0,550.6526810419999,,,,,
stim_set/easy-vcom=3-15.png,none.png,unmotivated,2.25,fall,left,easy,,550.6532439580005,553.5158990829987,incorrect,2.8104274170000285,stand,right,3.0,558.4925522079975,,,,,
stim_set/hard-vcom=3-7.png,none.png,unmotivated,2.75,fall,left,hard,,558.4930879169988,560.4674529170006,correct,1.9270818330005568,fall,left,4.0,567.0179303330004,,,,,
stim_set/hard-182.png,none.png,unmotivated,4.0,stand,right,hard,,567.0184720830002,571.3741600829999,correct,4.309769208000944,stand,right,1.0,577.9307425829975,,,,,
stim_set/hard-vcom=1-130.png,none.png,unmotivated,2.25,fall,left,hard,,577.9312812079987,579.6658728330002,incorrect,1.682714375001524,stand,right,4.0,585.0612080419996,,,,,
stim_set/hard-vcom=3-110.png,none.png,unmotivated,3.0,fall,left,hard,,585.061805207999,586.765848250001,correct,1.6579586670013668,fall,left,4.0,592.6346559579979,,,,,
stim_set/hard-82.png,none.png,unmotivated,3.75,stand,right,hard,,592.6352782079994,595.3491254170003,correct,2.6588122080029284,stand,right,2.0,601.6886732499988,,,,,
stim_set/hard-vcom=1-95.png,none.png,unmotivated,2.0,fall,left,hard,,601.6892592080003,603.4243192499998,incorrect,1.6834890829995857,stand,right,3.0,608.9162204579989,,,,,
stim_set/easy-vcom=1-12.png,none.png,unmotivated,2.0,fall,left,easy,,608.9167685419998,611.3176702499986,incorrect,2.3491910419979827,stand,right,2.0,616.2101688750008,,,,,
stim_set/hard-132.png,none.png,unmotivated,3.75,stand,right,hard,,616.2106671670007,619.0241974169985,incorrect,2.7608437500020955,fall,left,4.0,625.5689067499989,,,,,
stim_set/hard-40.png,none.png,unmotivated,3.0,stand,right,hard,,625.5695177079979,627.767771625,correct,2.1475730420024766,stand,right,3.0,633.9793383329998,,,,,
stim_set/hard-280.png,none.png,unmotivated,2.25,stand,right,hard,,633.9800745419998,638.2238521250001,incorrect,4.1883190000007735,fall,left,3.0,643.132886708001,,,,,
stim_set/easy-vcom=4-126.png,none.png,unmotivated,2.5,fall,left,easy,,643.1334781669975,646.0489153329981,incorrect,2.85930479200033,stand,right,4.0,651.7591374999975,,,,,
stim_set/hard-402.png,none.png,unmotivated,2.5,stand,right,hard,,651.7596675419991,655.0240555419988,correct,3.2092468750015537,stand,right,2.0,659.9419829170001,,,,,
stim_set/hard-vcom=4-139.png,none.png,unmotivated,4.0,fall,left,hard,,659.9425832499983,663.0823889169988,incorrect,3.0863943340009428,stand,right,4.0,670.3390379579978,670.3393610419989,,,,
stim_set/easy-vcom=3-74.png,fall.png,cooperation,2.25,fall,left,easy,0.00012124999921070412,0.0007407500015688129,7.154329791999771,correct,2.1074500830000034,fall,left,4,11.789580458000273,,,,1.0133556250002584,
stim_set/hard-566.png,stand.png,cooperation,3.25,stand,right,hard,,11.790145208000467,18.239531374998478,incorrect,1.408891290997417,fall,left,2,23.99787995799852,,,,12.800808791998861,
stim_set/hard-49.png,fall.png,cooperation,3.0,stand,right,hard,,23.998446042001888,32.27914695800064,incorrect,3.2365308340013144,fall,left,3,37.59589470799983,,,,25.008591333000368,
stim_set/hard-vcom=3-110.png,fall.png,cooperation,2.0,fall,left,hard,,37.596446457999264,43.87272095799926,correct,1.2473257079982432,fall,left,5,48.24369300000035,,,,38.60645716699946,
stim_set/hard-367.png,stand.png,cooperation,3.75,stand,right,hard,,48.2442583330012,54.84579700000177,correct,1.5601697499987495,stand,right,2,61.00924354200106,,,,49.25510929200027,
stim_set/hard-vcom=2-100.png,stand.png,cooperation,4.0,fall,left,hard,,61.00977720800074,69.16242429200065,correct,3.1122713749973627,fall,left,2,75.49201341699882,,,,62.020155082998826,
stim_set/hard-391.png,stand.png,cooperation,2.75,stand,right,hard,,75.49259091700151,83.02061716699973,incorrect,2.487891541000863,fall,left,3,88.20049516699873,,,,76.50349120800092,
stim_set/hard-600.png,stand.png,cooperation,3.0,stand,right,hard,,88.20109366700126,94.52076783300072,incorrect,1.2853334579995135,fall,left,2,99.60289462500077,,,,89.21169362499859,
stim_set/easy-vcom=1-87.png,fall.png,cooperation,2.5,fall,left,easy,,99.6034956250005,105.96245616699889,incorrect,1.3146772920008516,stand,right,5,111.14341104200139,,,,100.61393716699968,
stim_set/hard-492.png,stand.png,cooperation,2.25,stand,right,hard,,111.14407116700022,118.29557637499965,incorrect,2.1091089170004125,fall,left,2,122.79697750000196,,,,112.15534020799896,
stim_set/hard-vcom=4-147.png,stand.png,cooperation,3.25,fall,left,hard,,122.79754533300002,130.17920654200134,correct,2.336777666998387,fall,left,3,136.1578886669995,,,,123.80807870799981,
stim_set/hard-vcom=1-136.png,stand.png,cooperation,2.75,fall,left,hard,,136.1584252499997,144.9472974579985,correct,3.7532527499970456,fall,left,3,149.92134725000142,,,,137.16911099999925,
stim_set/hard-vcom=1-130.png,fall.png,cooperation,2.5,fall,left,hard,,149.9218937500009,156.34539075000066,correct,1.3857713340003102,fall,left,4,161.37544304200128,,,,150.93157362499915,
stim_set/easy-vcom=2-20.png,fall.png,cooperation,4.0,fall,left,easy,,161.3760180829995,168.814006083001,correct,2.4038782919997175,fall,left,2,175.09192920799978,,,,162.38602058299875,
stim_set/hard-177.png,stand.png,cooperation,2.0,stand,right,hard,,175.0924831250013,183.4872205419997,correct,3.3602706249985204,stand,right,3,187.8513309580012,,,,176.10376120799992,
stim_set/hard-78.png,stand.png,cooperation,2.25,stand,right,hard,,187.8519180000003,194.28912545799903,incorrect,1.3990259160018468,fall,left,4,198.5899376669986,,,,188.8628956249995,
stim_set/hard-564.png,fall.png,cooperation,2.25,stand,right,hard,,198.59049366700128,204.84562633300084,incorrect,1.2127044170010777,fall,left,5,209.396833625,,,,199.6005308749991,
stim_set/hard-402.png,stand.png,cooperation,3.75,stand,right,hard,,209.397383042,216.52891308299877,incorrect,2.089145041998563,fall,left,4,222.3372143330016,,,,210.4075190830008,
stim_set/easy-vcom=2-147.png,stand.png,cooperation,3.0,fall,left,easy,,222.33793308299937,229.64725037500102,incorrect,2.2720729159991606,stand,right,4,234.83435570800066,,,,223.3486149579985,
stim_set/easy-538.png,fall.png,cooperation,2.5,stand,right,easy,,234.83488820799903,240.922350249999,correct,1.0545990419996087,stand,right,5,245.77489462499943,,,,235.84482979200038,
stim_set/hard-345.png,stand.png,cooperation,2.25,stand,right,hard,,245.7754597919993,253.3038774170018,correct,2.4892720829993777,stand,right,4,258.0368340419991,,,,246.78562754200175,
stim_set/hard-244.png,fall.png,cooperation,2.5,stand,right,hard,,258.03757233299984,266.35498541700144,correct,3.2788365830019757,stand,right,2,271.38268049999897,,,,259.04759000000195,
stim_set/hard-2.png,fall.png,cooperation,3.25,stand,right,hard,,271.3834155000004,278.2871999579984,correct,1.8620522500023071,stand,right,4,283.8687772919984,,,,272.39361541700055,
stim_set/easy-vcom=1-73.png,fall.png,cooperation,2.5,fall,left,easy,,283.86940633300037,292.91218737500094,correct,4.008835417000228,fall,left,5,297.8078322500005,,,,284.879925833,
stim_set/hard-182.png,stand.png,cooperation,2.75,stand,right,hard,,297.80839095800184,303.82883225000114,incorrect,0.9862879590000375,fall,left,4,309.5927034999986,,,,298.8191627080014,
stim_set/easy-13.png,fall.png,cooperation,3.25,stand,right,easy,,309.59324641700005,316.2454384170014,correct,1.6080704580017482,stand,right,4,321.7098498330015,,,,310.6038295420003,
stim_set/hard-vcom=1-3.png,fall.png,cooperation,2.25,fall,left,hard,,321.7104883329994,328.0371327499997,correct,1.285342249997484,fall,left,5,332.52442295799847,,,,322.7213481250001,
stim_set/easy-344.png,fall.png,cooperation,2.75,stand,right,easy,,332.5249586249993,339.50397316700037,correct,1.9396234999985609,stand,right,5,344.53761287499947,,,,333.53556195800047,
stim_set/hard-vcom=4-80.png,stand.png,cooperation,4.0,fall,left,hard,,344.5381562920011,352.5802351249986,correct,3.00198462499975,fall,left,4,358.95433050000065,,,,345.549104624999,
stim_set/hard-vcom=2-137.png,fall.png,cooperation,2.25,fall,left,hard,,358.9548759169993,368.1286465000012,correct,4.136398832997656,fall,left,3,372.9089302079992,,,,359.9647420000001,
stim_set/hard-vcom=2-147.png,fall.png,cooperation,2.5,fall,left,hard,,372.90949241699855,380.6704124579992,correct,2.726524124998832,fall,left,3,385.8948121249996,,,,373.91978200000085,
stim_set/hard-382.png,fall.png,cooperation,3.75,stand,right,hard,,385.89537991700126,394.36181645800025,correct,3.433215334000124,stand,right,2,400.47388220799985,,,,386.9057847080003,
stim_set/hard-441.png,fall.png,cooperation,2.0,stand,right,hard,,400.4744622920007,408.9803915830016,correct,3.4733227500000794,stand,right,4,413.8427088749995,,,,401.48435141699883,
stim_set/hard-570.png,fall.png,cooperation,2.0,stand,right,hard,,413.843306499999,420.09535224999854,incorrect,1.2082083329987654,fall,left,5,424.6190038749992,,,,414.85361337499853,
stim_set/easy-vcom=2-3.png,stand.png,cooperation,3.75,fall,left,easy,,424.6195525000003,431.78023441700134,correct,2.123540332999255,fall,left,3,437.801040792001,,,,425.6301288329996,
stim_set/easy-280.png,fall.png,cooperation,3.0,stand,right,easy,,437.8018395830004,444.45366566699886,correct,1.6115054590009095,stand,right,5,449.5391790419999,,,,438.8126507500019,
stim_set/easy-vcom=3-38.png,stand.png,cooperation,2.25,fall,left,easy,,449.53973012500137,459.34534016700127,correct,4.761459582998214,fall,left,3,463.7960564999994,,,,450.5506029169992,
stim_set/hard-vcom=1-95.png,fall.png,cooperation,2.5,fall,left,hard,,463.7966115829986,472.79536237499997,incorrect,3.9589549169977545,stand,right,3,477.551561332999,,,,464.8070392080008,
stim_set/hard-369.png,fall.png,cooperation,2.5,stand,right,hard,,477.552133707999,484.12014374999853,correct,1.534971917000803,stand,right,2,489.8641253749993,,,,478.5621353329989,
stim_set/hard-vcom=1-50.png,stand.png,cooperation,4.0,fall,left,hard,,489.8647128750017,496.3304041670017,correct,1.4267976250011998,fall,left,3,502.7149261250015,502.7153514169986,,,490.8747240420016,
stim_set/hard-321.png,fall.png,cooperation,2.25,stand,right,hard,504.5294404580018,504.5300989999996,510.9369103329991,incorrect,1.3644657909972011,fall,left,5,515.3648757920018,,,,505.5440136670004,
stim_set/easy-vcom=3-142.png,fall.png,cooperation,3.25,fall,left,easy,,515.3656149579983,522.7702646670004,correct,2.362538042001688,fall,left,3,528.1168040830016,,,,516.3758593329985,
stim_set/hard-316.png,fall.png,cooperation,2.5,stand,right,hard,,528.1173224580016,534.7554059579998,incorrect,1.6030004999993253,fall,left,3,539.494937042,,,,529.1276142919996,
stim_set/hard-vcom=2-20.png,stand.png,cooperation,2.0,fall,left,hard,,539.4955241669995,546.0036153330002,correct,1.463901667000755,fall,left,4,550.1148958330014,,,,540.5058966249999,
stim_set/easy-164.png,fall.png,cooperation,3.75,stand,right,easy,,550.1154441670005,556.7201921669985,correct,1.5607870419989922,stand,right,5,562.5146501669988,,,,551.1257505419999,
stim_set/easy-vcom=4-69.png,stand.png,cooperation,4.0,fall,left,easy,,562.5153527920011,568.8201125830019,incorrect,1.261583542000153,stand,right,5,575.3385626669988,,,,563.5260802080011,
stim_set/hard-334.png,stand.png,cooperation,2.75,stand,right,hard,,575.3391544580008,581.886701667001,incorrect,1.5095909589981602,fall,left,3,586.8400747080013,,,,576.3495273750013,
stim_set/hard-132.png,stand.png,cooperation,3.0,stand,right,hard,,586.8406878329988,594.5552247500018,incorrect,2.6789680410001893,fall,left,4,599.7630585830011,,,,587.8510547920014,
stim_set/easy-77.png,fall.png,cooperation,2.5,stand,right,easy,,599.7636106249993,606.1614556669992,correct,1.3587162920011906,stand,right,5,610.8546433750016,,,,600.7733829579993,
stim_set/easy-vcom=1-12.png,stand.png,cooperation,2.25,fall,left,easy,,610.8552577500013,617.2970447080006,correct,1.402939083000092,fall,left,3,621.5980393749996,,,,611.8651174170009,
stim_set/hard-214.png,stand.png,cooperation,3.25,stand,right,hard,,621.5986679580019,627.8034011669988,incorrect,1.1611287080013426,fall,left,3,633.6046880419999,,,,622.6091631669988,
stim_set/hard-vcom=4-139.png,stand.png,cooperation,2.75,fall,left,hard,,633.6052485,640.2034159579998,correct,1.558725000002596,fall,left,1,645.144460208001,,,,634.6158224999999,
stim_set/easy-vcom=4-126.png,fall.png,cooperation,2.5,fall,left,easy,,645.1451602500019,652.6534015830002,incorrect,2.4643484169973817,stand,right,4,657.238281124999,,,,646.1554219169993,
stim_set/hard-vcom=3-142.png,fall.png,cooperation,4.0,fall,left,hard,,657.2389094579994,664.8054080420006,correct,2.5265524159985944,fall,left,1,671.114292541999,,,,658.2492915830007,
stim_set/hard-vcom=4-75.png,fall.png,cooperation,2.0,fall,left,hard,,671.114819167,678.4470409999994,correct,2.293196500002523,fall,left,5,682.6586311249994,,,,672.1252638750011,
stim_set/hard-vcom=4-142.png,stand.png,cooperation,2.25,fall,left,hard,,682.6594360000017,690.311647417002,incorrect,2.611550249999709,stand,right,3,694.7803525829986,,,,683.6703419580008,
stim_set/hard-549.png,stand.png,cooperation,2.25,stand,right,hard,,694.780874832999,702.5366463749997,correct,2.7143647090015293,stand,right,3,706.9719037079994,,,,695.7912887499988,
stim_set/hard-vcom=3-145.png,stand.png,cooperation,3.75,fall,left,hard,,706.9724473749993,714.0299979580013,incorrect,2.0287388329998066,stand,right,4,719.8394796249995,,,,707.9824755420013,
stim_set/easy-vcom=3-15.png,stand.png,cooperation,3.0,fall,left,easy,,719.8401561669998,727.9949099580008,incorrect,3.1146097500022734,stand,right,2,733.2186259170012,,,,720.8502053330012,
stim_set/hard-vcom=1-30.png,fall.png,cooperation,2.5,fall,left,hard,,733.2191692080014,740.4949272500016,correct,2.2384124160016654,fall,left,5,745.110811292001,,,,734.2291989170008,
stim_set/hard-vcom=4-92.png,stand.png,cooperation,2.25,fall,left,hard,,745.1113556249984,753.744969542,correct,3.5893361660018854,fall,left,2,758.3486484579989,,,,746.1218131249989,
stim_set/hard-21.png,stand.png,cooperation,2.5,stand,right,hard,,758.3492007919995,766.5783269579988,correct,3.1894057499994233,stand,right,2,771.5904713749987,,,,759.3597188329986,
stim_set/hard-280.png,stand.png,cooperation,3.25,stand,right,hard,,771.5913160829987,778.3302061670001,correct,1.6993597079999745,stand,right,3,783.7806427920004,,,,772.6019504169999,
stim_set/hard-vcom=2-110.png,fall.png,cooperation,2.5,fall,left,hard,,783.7813608750002,792.0283434580015,correct,3.2083611249981914,fall,left,3,796.581463458002,,,,784.7913512500018,
stim_set/hard-vcom=3-7.png,fall.png,cooperation,2.75,fall,left,hard,,796.5820169580002,803.2467280419987,correct,1.6291572909976821,fall,left,5,808.0720317080013,,,,797.5924041670005,
stim_set/hard-vcom=3-34.png,stand.png,cooperation,3.25,fall,left,hard,,808.0726627500007,815.9130961250012,correct,2.801683999998204,fall,left,2,821.6851310829989,,,,809.0824809170008,
stim_set/easy-vcom=4-19.png,stand.png,cooperation,2.25,fall,left,easy,,821.6856722500015,828.871687875002,incorrect,2.147298457999568,stand,right,3,833.4517047920017,,,,822.6958879170015,
stim_set/hard-7.png,stand.png,cooperation,2.75,stand,right,hard,,833.4523221669988,840.3965887919985,incorrect,1.9043575420000707,fall,left,2,845.3846290000001,,,,834.4628554580013,
stim_set/easy-590.png,fall.png,cooperation,4.0,stand,right,easy,,845.3851792919995,851.7114074169986,correct,1.2822607919988513,stand,right,5,858.0259966670019,,,,846.3948217920006,
stim_set/hard-82.png,stand.png,cooperation,2.25,stand,right,hard,,858.026504583002,865.0129144999992,correct,1.9486430830002064,stand,right,3,869.900585667001,,,,859.0369405829988,
stim_set/hard-vcom=4-23.png,fall.png,cooperation,3.0,fall,left,hard,,869.9011185829986,876.3280748750003,correct,1.3879458749979676,fall,left,3,881.650926833001,,,,870.9110543749994,
stim_set/hard-91.png,fall.png,cooperation,3.75,stand,right,hard,,881.651506582999,889.1630656669986,correct,2.475218625000707,stand,right,1,895.1842356669986,,,,882.6615932079985,
stim_set/hard-599.png,fall.png,cooperation,2.0,stand,right,hard,,895.1849183330014,902.5530961250006,incorrect,2.334657708997838,fall,left,3,907.1066052079987,,,,896.1953060420019,
stim_set/easy-411.png,stand.png,cooperation,2.0,stand,right,easy,,907.1071810419999,913.7712419999989,correct,1.624629707999702,stand,right,5,917.9695217080007,,,,908.1178150000014,
stim_set/easy-vcom=1-145.png,stand.png,cooperation,3.75,fall,left,easy,,917.9701275420011,924.2636048749991,correct,1.2550240000018675,fall,left,4,930.1999376249987,,,,918.9810372079992,
stim_set/hard-40.png,stand.png,cooperation,3.0,stand,right,hard,,930.2006713330011,936.6132834169985,incorrect,1.3739406660024542,fall,left,5,941.8343564579991,,,,931.2114481249992,
stim_set/hard-vcom=2-16.png,stand.png,cooperation,2.25,fall,left,hard,,941.8350492919999,948.9048502920014,incorrect,2.028911707999214,stand,right,4,953.3636862079984,,,,942.8462339170001,
stim_set/hard-14.png,fall.png,cooperation,2.5,stand,right,hard,,953.3643015000016,959.736394333002,incorrect,1.3386394589979318,fall,left,3,964.4853990420015,,,,954.3749075000014,
stim_set/hard-vcom=3-82.png,fall.png,cooperation,2.5,fall,left,hard,,964.4859802079991,972.0965795000011,correct,2.572916791999887,fall,left,5,976.7020296670016,,,,965.4964450000007,
stim_set/easy-vcom=2-94.png,stand.png,cooperation,4.0,fall,left,easy,,976.7025866250005,984.3126552499998,correct,2.576055624998844,fall,left,4,990.8746241670015,990.8749628330006,,,977.7126827079992,
stim_set/easy-vcom=3-74.png,fall.png,competition,2.25,fall,left,easy,0.00015999999959603883,0.0007631249973201193,8.785068582998067,correct,3.7389822090008233,fall,left,3.0,14.75847008299752,,,,1.0134624579986848,
stim_set/hard-vcom=1-136.png,fall.png,competition,3.25,fall,left,hard,,14.758989082998594,23.6450205000001,correct,3.851277833000495,fall,left,4.0,29.90185600000041,,,,15.769351208000446,
stim_set/hard-369.png,fall.png,competition,3.0,stand,right,hard,,29.902412874998845,36.49336050000056,correct,1.5573151659991709,stand,right,4.0,42.059729166998295,,,,30.912926958000757,
stim_set/hard-vcom=2-147.png,stand.png,competition,2.0,fall,left,hard,,42.06028408299972,48.80982479199884,correct,1.7148716660012724,fall,left,3.0,53.73938220799755,,,,43.070873041997395,
stim_set/hard-vcom=2-20.png,stand.png,competition,3.75,fall,left,hard,,53.73991166699852,61.91809512499822,correct,3.1349990420021636,fall,left,4.0,68.70464154199726,,,,54.7504882079993,
stim_set/easy-vcom=1-73.png,fall.png,competition,4.0,fall,left,easy,,68.70529970799906,76.27631699999985,correct,2.537255999999616,fall,left,4.0,82.81021599999805,,,,69.71557737499825,
stim_set/hard-132.png,fall.png,competition,2.75,stand,right,hard,,82.81075958300062,90.1345765829974,incorrect,2.284314333999646,fall,left,3.0,95.88097041699804,,,,83.82102983299774,
stim_set/easy-vcom=2-20.png,stand.png,competition,3.0,fall,left,easy,,95.88152470799831,103.4695850829994,incorrect,2.5527847500015923,stand,right,3.0,109.33037879199765,,,,96.89187816699994,
stim_set/hard-280.png,fall.png,competition,2.5,stand,right,hard,,109.33092595799826,116.5345943329994,correct,2.160364708000998,stand,right,3.0,121.90368149999996,,,,110.3413550419973,
stim_set/hard-600.png,fall.png,competition,2.25,stand,right,hard,,121.90430820799885,130.11139145799822,incorrect,3.1773354580000164,fall,left,3.0,135.42033108299802,,,,122.91513199999828,
stim_set/hard-334.png,stand.png,competition,3.25,stand,right,hard,,135.4208655830007,143.26785220799866,incorrect,2.8085945419989,fall,left,4.0,149.2443909169997,,,,136.4315172079987,
stim_set/easy-vcom=1-12.png,stand.png,competition,2.75,fall,left,easy,,149.24491804200082,157.25112249999805,correct,2.962369917000615,fall,left,3.0,163.04012633299863,,,,150.25528129200032,
stim_set/easy-vcom=2-147.png,fall.png,competition,2.5,fall,left,easy,,163.04067245799888,169.8178312079981,correct,1.7356470410013571,fall,left,4.0,175.09402454199883,,,,164.0509629579974,
stim_set/easy-590.png,stand.png,competition,4.0,stand,right,easy,,175.09463512499858,181.7110867079973,correct,1.576606582999375,stand,right,5.0,188.34638666699902,,,,176.10536362499988,
stim_set/hard-91.png,fall.png,competition,2.0,stand,right,hard,,188.34695658299825,195.5760884169977,correct,2.1865989999969315,stand,right,2.0,200.27540670799863,,,,189.35776070800057,
stim_set/hard-vcom=1-95.png,stand.png,competition,2.25,fall,left,hard,,200.27597441699984,207.0359862500009,incorrect,1.7255049589984992,stand,right,3.0,211.56406412499928,,,,201.28649454200058,
stim_set/hard-402.png,stand.png,competition,2.25,stand,right,hard,,211.564656874998,219.69261175000062,incorrect,3.085129041999608,fall,left,3.0,224.71665645800027,,,,212.57504304199762,
stim_set/hard-49.png,fall.png,competition,3.75,stand,right,hard,,224.71729566700012,234.2260164170002,correct,4.463400417000231,stand,right,4.0,240.7440524579979,,,,225.72753133299918,
stim_set/easy-vcom=4-69.png,stand.png,competition,3.0,fall,left,easy,,240.74454524999962,247.07585141699744,incorrect,1.2876711249991786,stand,right,5.0,252.4826995000003,,,,241.75534758299906,
stim_set/easy-vcom=3-38.png,stand.png,competition,2.5,fall,left,easy,,252.48327441699803,260.6029704169996,incorrect,3.079977166999015,stand,right,3.0,266.12613045800026,,,,253.49397449999745,
stim_set/hard-vcom=3-7.png,fall.png,competition,2.25,fall,left,hard,,266.1267173749984,272.77585083300073,correct,1.6093702079997456,fall,left,5.0,277.9158970419994,,,,267.13683520799896,
stim_set/easy-vcom=3-142.png,stand.png,competition,2.5,fall,left,easy,,277.91656645799964,285.87738424999765,correct,2.9231246249983087,fall,left,3.0,291.8308707079996,,,,278.9270044999976,
stim_set/hard-345.png,stand.png,competition,3.25,stand,right,hard,,291.83144212499974,298.2841151249995,correct,1.4124231669993603,stand,right,5.0,304.1493794999988,,,,292.842439,
stim_set/easy-164.png,stand.png,competition,2.5,stand,right,easy,,304.14992129199885,310.53602549999783,correct,1.3465519169985782,stand,right,5.0,315.26248741699965,,,,305.16034699999733,
stim_set/hard-2.png,fall.png,competition,2.75,stand,right,hard,,315.26312120799776,322.7675992500008,correct,2.46269787500205,stand,right,4.0,327.92815725000037,,,,316.27328445799867,
stim_set/hard-vcom=4-75.png,stand.png,competition,3.25,fall,left,hard,,327.9287814579984,336.65902308300065,correct,3.6865818750011385,fall,left,4.0,343.045610833,,,,328.93980316699884,
stim_set/hard-40.png,stand.png,competition,2.25,stand,right,hard,,343.046325416999,350.2025666669979,incorrect,2.118040834000567,fall,left,5.0,354.8447964169972,,,,344.0570931250004,
stim_set/hard-vcom=2-100.png,fall.png,competition,2.75,fall,left,hard,,354.84553550000055,362.6605509580004,correct,2.7798678330000257,fall,left,3.0,367.63960137499816,,,,355.8556581249977,
stim_set/hard-vcom=3-145.png,stand.png,competition,4.0,fall,left,hard,,367.64032312500063,374.4939192919992,incorrect,1.825332917000196,stand,right,5.0,381.16982187499883,,,,368.65062150000085,
stim_set/hard-82.png,fall.png,competition,2.25,stand,right,hard,,381.1703590420002,390.51115966699945,correct,4.302730583000084,stand,right,2.0,395.00383391699864,,,,382.1806479169972,
stim_set/easy-vcom=2-3.png,fall.png,competition,2.5,fall,left,easy,,395.00438112499984,403.3090302499986,correct,3.262660832999245,fall,left,4.0,408.0311136669989,,,,396.01462499999985,
stim_set/hard-566.png,fall.png,competition,3.75,stand,right,hard,,408.03172954199914,414.3340149169999,incorrect,1.2581986660006803,fall,left,5.0,420.5193825419992,,,,409.0420018330005,
stim_set/hard-214.png,stand.png,competition,2.0,stand,right,hard,,420.5199317080005,429.0859304170008,incorrect,3.52677016600137,fall,left,3.0,433.6345626250004,,,,421.5303375830008,
stim_set/easy-vcom=4-19.png,fall.png,competition,2.0,fall,left,easy,,433.635086708,442.6422950419983,correct,3.963547375002236,fall,left,3.0,448.0516180829982,,,,434.64533599999777,
stim_set/easy-280.png,fall.png,competition,3.75,stand,right,easy,,448.0523571249978,454.22554412499807,correct,1.1338264999976673,stand,right,5.0,460.92839658300005,,,,449.0626650419981,
stim_set/hard-321.png,stand.png,competition,3.0,stand,right,hard,,460.9290093749987,467.5188647079994,incorrect,1.5550274579982215,fall,left,5.0,473.0500765420002,,,,461.94012570799896,
stim_set/hard-182.png,stand.png,competition,2.25,stand,right,hard,,473.0506710419977,479.3671425829998,incorrect,1.2831866670021554,fall,left,4.0,484.2763836249978,,,,474.06114508300016,
stim_set/hard-vcom=3-34.png,stand.png,competition,2.5,fall,left,hard,,484.27710875000054,492.0838254579976,correct,2.7622217080024707,fall,left,4.0,496.9096327919978,,,,485.2875048749993,
stim_set/easy-538.png,fall.png,competition,2.5,stand,right,easy,,496.9101789999986,503.2337728329985,correct,1.2855615419975948,stand,right,5.0,507.99822249999846,,,,497.9204297920005,
stim_set/hard-244.png,stand.png,competition,4.0,stand,right,hard,,507.99881366699987,515.9503984580007,correct,2.907622167000227,stand,right,4.0,522.4498760829994,522.4502795829976,,,509.00940237499884,
stim_set/easy-13.png,stand.png,competition,2.25,stand,right,easy,524.9132954579982,524.9140614169992,532.000319625,correct,2.0412947080003505,stand,right,4.0,536.7958423749988,,,,525.9258562920004,
stim_set/hard-vcom=4-23.png,stand.png,competition,3.25,fall,left,hard,,536.7963972500002,543.4503504169988,correct,1.6150427920001675,fall,left,3.0,548.8917485419988,,,,537.8064952079985,
stim_set/hard-vcom=4-80.png,fall.png,competition,2.5,fall,left,hard,,548.8922959579977,558.3357395419989,incorrect,4.404156874999899,stand,right,3.0,563.1100871249982,,,,549.902202792,
stim_set/easy-77.png,stand.png,competition,2.0,stand,right,easy,,563.1106300829997,569.3441845419984,correct,1.1981637089993455,stand,right,5.0,573.9615611249974,,,,564.1211710419993,
stim_set/hard-177.png,fall.png,competition,3.75,stand,right,hard,,573.9621255419987,582.5436377919978,incorrect,3.552825708000455,fall,left,3.0,588.3511092499975,,,,574.9723142919976,
stim_set/easy-vcom=2-94.png,fall.png,competition,4.0,fall,left,easy,,588.351609207999,595.7503765000001,incorrect,2.3593210830003954,stand,right,3.0,602.5214854580007,,,,589.3620516249974,
stim_set/hard-vcom=1-30.png,fall.png,competition,2.75,fall,left,hard,,602.522060583,609.4170961669987,correct,1.8578399590005572,fall,left,3.0,614.7035466249981,,,,603.5318440829977,
stim_set/easy-vcom=3-15.png,fall.png,competition,3.0,fall,left,easy,,614.7041103329975,624.0502864579976,correct,4.306531041998824,fall,left,3.0,629.3453810419996,,,,615.7139147499984,
stim_set/hard-vcom=1-3.png,stand.png,competition,2.5,fall,left,hard,,629.3459352499995,635.9502751250002,correct,1.5637967500006198,fall,left,5.0,640.8777053329977,,,,630.3565185829975,
stim_set/easy-411.png,stand.png,competition,2.25,stand,right,easy,,640.8783182919979,647.9584355419976,correct,2.036014334000356,stand,right,5.0,652.6188897499998,,,,641.889220582998,
stim_set/easy-344.png,fall.png,competition,3.25,stand,right,easy,,652.619612874998,658.7270214169985,correct,1.0730590419989312,stand,right,5.0,664.7875220419993,,,,653.6301425829987,
stim_set/hard-vcom=3-142.png,fall.png,competition,2.75,fall,left,hard,,664.7880652079983,672.8918716669978,incorrect,3.0598068750005036,stand,right,3.0,678.4243235829999,,,,665.7987054580008,
stim_set/hard-vcom=3-110.png,stand.png,competition,2.5,fall,left,hard,,678.4249437500002,684.7521338330007,correct,1.2981511670004693,fall,left,5.0,689.4854321669991,,,,679.4352983749994,
stim_set/hard-441.png,stand.png,competition,4.0,stand,right,hard,,689.4860497919981,695.9583441670003,correct,1.4341644160012947,stand,right,5.0,702.2101075829996,,,,690.4967830829993,
stim_set/hard-570.png,stand.png,competition,2.0,stand,right,hard,,702.210704582998,708.6001081670001,incorrect,1.3454394159998628,fall,left,4.0,712.9928093329981,,,,703.2215843329977,
stim_set/hard-492.png,fall.png,competition,2.25,stand,right,hard,,712.9933353329981,720.4168328749984,incorrect,2.382479916999728,fall,left,3.0,725.0517631250003,,,,714.0034137919973,
stim_set/hard-vcom=3-82.png,stand.png,competition,2.25,fall,left,hard,,725.0523193329973,731.208529042,correct,1.1139303749987448,fall,left,5.0,735.8755397079985,,,,726.0625282500005,
stim_set/hard-vcom=1-50.png,fall.png,competition,3.75,fall,left,hard,,735.8761332079994,744.093364458,incorrect,3.178588167000272,stand,right,2.0,750.0711633749997,,,,736.8860815829976,
stim_set/hard-vcom=2-137.png,stand.png,competition,3.0,fall,left,hard,,750.0717460829982,757.4750749999985,incorrect,2.365280707999773,stand,right,3.0,762.7138762499999,,,,751.0826022500005,
stim_set/hard-vcom=4-147.png,stand.png,competition,2.5,fall,left,hard,,762.7145304170008,769.4932100829974,correct,1.7386862919993291,fall,left,5.0,774.8449383749976,,,,763.7255414579996,
stim_set/hard-599.png,stand.png,competition,2.25,stand,right,hard,,774.8454923749997,782.5167840830001,incorrect,2.6368052090001584,fall,left,3.0,786.9796755829992,,,,775.856351208,
stim_set/hard-vcom=4-139.png,fall.png,competition,2.5,fall,left,hard,,786.9802319169977,795.0180827919977,correct,3.003587790997699,fall,left,2.0,800.0933308749991,,,,787.9901171249985,
stim_set/hard-vcom=1-130.png,fall.png,competition,3.25,fall,left,hard,,800.0938541249997,807.1665747080007,incorrect,2.033545750000485,stand,right,3.0,812.5858733749992,,,,801.1039823749996,
stim_set/easy-vcom=1-87.png,stand.png,competition,2.5,fall,left,easy,,812.5866486249979,818.8665922500003,incorrect,1.2371102500001143,stand,right,5.0,824.0457418749976,,,,813.5973354169982,
stim_set/hard-549.png,stand.png,competition,2.75,stand,right,hard,,824.0463121249995,833.7101403329981,incorrect,4.626966292002179,fall,left,2.0,838.8145370419987,,,,825.0571441669998,
stim_set/hard-391.png,stand.png,competition,3.25,stand,right,hard,,838.8150597919994,845.4415745829974,incorrect,1.587034042000596,fall,left,5.0,851.4029816670009,,,,839.8256487920007,
stim_set/hard-vcom=2-110.png,fall.png,competition,2.25,fall,left,hard,,851.4035506670008,858.5354398329982,correct,2.097198958999797,fall,left,2.0,864.2601101670008,,,,852.4142532499973,
stim_set/hard-vcom=4-142.png,fall.png,competition,2.75,fall,left,hard,,864.2606671670002,870.933108666999,incorrect,1.6326556249987334,stand,right,2.0,876.7195044170003,,,,865.2708097499999,
stim_set/hard-564.png,stand.png,competition,4.0,stand,right,hard,,876.7201354169993,882.9850496670006,incorrect,1.2242411250008445,fall,left,5.0,889.2889382920002,,,,877.7308929999998,
stim_set/hard-vcom=2-16.png,stand.png,competition,2.25,fall,left,hard,,889.2895062499992,896.2665175000003,incorrect,1.9325060840019432,stand,right,5.0,901.1874216670004,,,,890.299957291998,
stim_set/easy-vcom=4-126.png,fall.png,competition,3.0,fall,left,easy,,901.1879527079982,907.516342832998,incorrect,1.2846357080015878,stand,right,5.0,912.896217333,,,,902.1981023749976,
stim_set/hard-vcom=4-92.png,fall.png,competition,3.75,fall,left,hard,,912.8970298749992,919.9997847499981,incorrect,2.058506249999482,stand,right,3.0,926.4151966249992,,,,913.9076432080001,
stim_set/hard-7.png,fall.png,competition,2.0,stand,right,hard,,926.4157353329974,933.1098371669976,incorrect,1.654557375000877,fall,left,4.0,937.2490081249997,,,,927.4259317079996,
stim_set/hard-382.png,fall.png,competition,2.0,stand,right,hard,,937.2496544999997,944.0163424169988,incorrect,1.7342072920000646,fall,left,3.0,948.2968090830001,,,,938.2596289579996,
stim_set/hard-316.png,stand.png,competition,3.75,stand,right,hard,,948.2973124579984,957.1099617920007,correct,3.778424708001694,stand,right,2.0,963.8144391249988,,,,949.3075779579996,
stim_set/hard-367.png,fall.png,competition,3.0,stand,right,hard,,963.8150074999976,971.6666148330004,incorrect,2.8111151669982064,fall,left,3.0,976.889569791998,,,,964.825429417,
stim_set/hard-21.png,stand.png,competition,2.25,stand,right,hard,,976.8901756669984,985.3913557079976,incorrect,3.4625515830011864,fall,left,3.0,989.6979043329993,,,,977.900351917,
stim_set/hard-78.png,fall.png,competition,2.5,stand,right,hard,,989.698459583,997.7245892079993,incorrect,2.9851063749993045,fall,left,3.0,1002.7739015000006,,,,990.708608375,
stim_set/easy-vcom=1-145.png,stand.png,competition,2.5,fall,left,easy,,1002.7745571669984,1009.1913879169988,correct,1.374508834000153,fall,left,3.0,1014.1415104579975,,,,1003.785351999999,
stim_set/hard-14.png,fall.png,competition,4.0,stand,right,hard,,1014.1420824579982,1020.8076787499997,incorrect,1.6325715830025729,fall,left,2.0,1027.4332979169994,1027.4336286670004,,,1015.1519369169982,
stim_set/hard-410.png,stand.png,cooperation,3.75,stand,right,hard,2.5419976736884564e-06,0.0022331669970299117,9.163928541998757,correct,4.150030125001649,stand,right,2,15.495129458999145,15.495669500000076,,,1.0149969589983812,
stim_set/hard-188.png,stand.png,competition,4.0,stand,right,hard,3.000001015607268e-06,0.002320957999472739,7.131636207999692,correct,2.1186179159994936,stand,right,3.0,14.194963292000466,14.195610374998068,,,1.015734666998469,
