towers,bet,condition,iti,corr_choice,corr_key,difficulty,block_start,trial_start,stim_on,acc,rt,part_choice,part_key,confidence,trial_end,block_end,updated_score,condition_first,cue_on,condition_second
stim_set/easy-vcom=2-20.png,none.png,unmotivated,2.25,fall,left,easy,4.4580010580830284e-06,0.0027934160025324672,1.9966209159974824,correct,1.9376475829994888,fall,left,5.0,8.484449458002928,,240.0,competition,,cooperation
stim_set/easy-vcom=4-19.png,none.png,unmotivated,3.25,fall,left,easy,,8.486058082999081,13.365320791002887,incorrect,4.826718832999177,stand,right,3.0,20.29060700000264,,460.0,,,
stim_set/hard-vcom=2-137.png,none.png,unmotivated,3.0,fall,left,hard,,20.291133874998195,22.45506670800387,correct,2.1130750840020482,fall,left,4.0,29.38542883300397,,690.0,,,
stim_set/hard-vcom=3-34.png,none.png,unmotivated,2.0,fall,left,hard,,29.385965875000693,31.315192916001248,correct,1.8768346670040048,fall,left,4.0,36.61582154100324,,,,,
stim_set/hard-564.png,none.png,unmotivated,3.75,stand,right,hard,,36.61636970799736,38.880072250001824,incorrect,2.207944875000976,fall,left,5.0,45.25382037500093,,,,,
stim_set/hard-21.png,none.png,unmotivated,4.0,stand,right,hard,,45.25455558300018,49.49660800000129,incorrect,4.18981608300237,fall,left,4.0,56.503348707999976,,,,,
stim_set/hard-vcom=3-145.png,none.png,unmotivated,2.75,fall,left,hard,,56.5039115000036,61.56337616599922,incorrect,,,,,67.20267162500386,,,,,
stim_set/easy-vcom=1-87.png,none.png,unmotivated,3.0,fall,left,easy,,67.2032659999968,68.59688237500086,incorrect,1.3380047079990618,stand,right,3.0,75.7083620830017,,,,,
stim_set/hard-vcom=2-16.png,none.png,unmotivated,2.5,fall,left,hard,,75.70904479100136,78.4652736249991,correct,2.7039867919957032,fall,left,3.0,83.47565479100012,,,,,
stim_set/hard-91.png,none.png,unmotivated,2.25,stand,right,hard,,83.47622916600085,86.31339058300364,incorrect,2.7829546249995483,fall,left,3.0,91.56991429100162,,,,,
stim_set/hard-214.png,none.png,unmotivated,3.25,stand,right,hard,,91.57059287500307,93.29825508299835,incorrect,1.6768172910014982,fall,left,4.0,99.89840783300316,,,,,
stim_set/hard-vcom=1-3.png,none.png,unmotivated,2.75,fall,left,hard,,99.89903191600023,102.23855387500221,correct,2.285381458001212,fall,left,5.0,107.80620725000335,,,,,
stim_set/hard-441.png,none.png,unmotivated,2.5,stand,right,hard,,107.80672845800294,112.27184958299769,correct,4.414753707998899,stand,right,2.0,118.3316689159983,,,,,
stim_set/easy-344.png,none.png,unmotivated,4.0,stand,right,easy,,118.332266874997,119.65663516600034,correct,1.2781634580023822,stand,right,4.0,126.57579933299714,,,,,
stim_set/hard-177.png,none.png,unmotivated,2.0,stand,right,hard,,126.57635950000258,128.81339408300119,incorrect,2.1913760829993407,fall,left,5.0,133.48692758299876,,,,,
stim_set/hard-321.png,none.png,unmotivated,2.25,stand,right,hard,,133.4874728750001,134.92186799999763,incorrect,1.3825477080026758,fall,left,5.0,139.62609033300396,,,,,
stim_set/easy-vcom=4-69.png,none.png,unmotivated,2.25,fall,left,easy,,139.62667212499946,143.09686433299794,correct,3.4150769580010087,fall,left,3.0,148.77903937500378,,,,,
stim_set/hard-vcom=1-30.png,none.png,unmotivated,3.75,fall,left,hard,,148.779771583002,150.81353800000215,correct,1.9842352920022681,fall,left,4.0,158.4316301660001,,,,,
stim_set/hard-vcom=2-110.png,none.png,unmotivated,3.0,fall,left,hard,,158.43229504099872,160.72186083300042,correct,2.2384354170062584,fall,left,5.0,167.21639145800145,,,,,
stim_set/easy-vcom=3-38.png,none.png,unmotivated,2.5,fall,left,easy,,167.21695408300002,169.86367054100262,correct,2.590564041995094,fall,left,3.0,176.01296887500214,,,,,
stim_set/hard-vcom=2-20.png,none.png,unmotivated,2.25,fall,left,hard,,176.01351874999816,178.68033991599805,correct,2.611364791999222,fall,left,3.0,184.36309837499718,,,,,
stim_set/hard-345.png,none.png,unmotivated,2.5,stand,right,hard,,184.36366783300042,186.48036145800145,correct,2.0642324999935227,stand,right,4.0,191.515632415998,,,,,
stim_set/hard-vcom=3-142.png,none.png,unmotivated,3.25,fall,left,hard,,191.5161820830035,193.85534120800003,correct,2.2829201669956087,fall,left,3.0,200.63520720799718,,,,,
stim_set/hard-367.png,none.png,unmotivated,2.5,stand,right,hard,,200.6357988750024,203.37191829099902,incorrect,2.6838654999955907,fall,left,3.0,209.1327202910033,,,,,
stim_set/hard-vcom=4-92.png,none.png,unmotivated,2.75,fall,left,hard,,209.1332806659993,211.58233470800042,correct,2.3969383330040728,fall,left,3.0,217.29367574999924,,,,,
stim_set/hard-244.png,none.png,unmotivated,3.25,stand,right,hard,,217.29442174999713,219.91381812500182,incorrect,2.5630216659992584,fall,left,3.0,226.97050391600345,,,,,
stim_set/hard-391.png,none.png,unmotivated,2.25,stand,right,hard,,226.97111437500286,229.11559237499748,incorrect,2.0973507500020787,fall,left,3.0,235.26694683299863,,,,,
stim_set/easy-vcom=2-94.png,none.png,unmotivated,2.75,fall,left,easy,,235.26750349999926,238.00538249999957,correct,2.686064000001352,fall,left,3.0,243.76651920800214,,,,,
stim_set/hard-vcom=4-142.png,none.png,unmotivated,4.0,fall,left,hard,,243.7670587500033,245.65539462499873,correct,1.8361653750034748,fall,left,3.0,252.86443091600086,,,,,
stim_set/easy-vcom=3-74.png,none.png,unmotivated,2.25,fall,left,easy,,252.8650341660032,254.54036137500225,correct,1.6245868330006488,fall,left,5.0,259.35331945800135,,,,,
stim_set/easy-13.png,none.png,unmotivated,2.5,stand,right,easy,,259.3538744160033,261.0721212080025,correct,1.6621980840063768,stand,right,4.0,266.5245754159987,,,,,
stim_set/hard-vcom=4-80.png,none.png,unmotivated,3.75,fall,left,hard,,266.52514187499764,267.9239077500024,correct,1.347180249998928,fall,left,5.0,274.11788470800093,,,,,
stim_set/hard-369.png,none.png,unmotivated,2.0,stand,right,hard,,274.11842862499907,275.3721439159999,correct,1.2075839169992832,stand,right,3.0,280.5931416660024,,,,,
stim_set/hard-492.png,none.png,unmotivated,2.0,stand,right,hard,,280.59373079099896,282.51379450000235,incorrect,1.8655697909998707,fall,left,4.0,287.61587887500355,,,,,
stim_set/hard-vcom=1-50.png,none.png,unmotivated,3.75,fall,left,hard,,287.6164199159976,290.1406544999992,correct,2.4726386250040377,fall,left,4.0,297.07947033300303,,,,,
stim_set/easy-280.png,none.png,unmotivated,3.0,stand,right,easy,,297.0800694999998,298.47364854100306,correct,1.34653645799699,stand,right,5.0,304.1195675409981,,,,,
stim_set/hard-7.png,none.png,unmotivated,2.25,stand,right,hard,,304.1200985000032,305.7491386659967,incorrect,1.5765684159996454,fall,left,4.0,311.09818041600374,,,,,
stim_set/easy-590.png,none.png,unmotivated,2.5,stand,right,easy,,311.0987616659986,313.0638660830008,correct,1.9089125829996192,stand,right,4.0,319.0443179580034,,,,,
stim_set/hard-600.png,none.png,unmotivated,2.5,stand,right,hard,,319.04503954100073,320.7408900829978,incorrect,1.6539554579940159,fall,left,5.0,325.8995400409985,,,,,
stim_set/easy-411.png,none.png,unmotivated,4.0,stand,right,easy,,325.90007958299975,327.4638904579988,correct,1.5077849159933976,stand,right,5.0,335.0898413329996,335.09016862499993,,,,
stim_set/hard-78.png,none.png,unmotivated,2.25,stand,right,hard,345.68760812500125,345.688459625002,347.26560558300116,incorrect,1.5273321669956204,fall,left,4.0,352.8984787910013,,,,,
stim_set/hard-vcom=2-100.png,none.png,unmotivated,3.25,fall,left,hard,,352.8990459580018,354.5989652499993,correct,1.651815458004421,fall,left,4.0,360.63432537500194,,,,,
stim_set/easy-538.png,none.png,unmotivated,2.5,stand,right,easy,,360.6349695829995,362.3221404580036,correct,1.6363223750013276,stand,right,5.0,367.3083056660033,,,,,
stim_set/hard-316.png,none.png,unmotivated,2.0,stand,right,hard,,367.30894875000376,369.74737704099965,incorrect,2.383231416999479,fall,left,4.0,374.27965837500227,,,,,
stim_set/hard-566.png,none.png,unmotivated,3.75,stand,right,hard,,374.28019925000257,378.7577342910008,incorrect,4.424949749998632,fall,left,5.0,386.41544712500036,,,,,
stim_set/easy-164.png,none.png,unmotivated,4.0,stand,right,easy,,386.4159851250006,387.8055525410018,correct,1.3332155419993796,stand,right,5.0,395.1607831660003,,,,,
stim_set/hard-382.png,none.png,unmotivated,2.75,stand,right,hard,,395.1613483330002,396.98253187500086,incorrect,1.7798258340044413,fall,left,5.0,402.7979477909976,,,,,
stim_set/easy-77.png,none.png,unmotivated,3.0,stand,right,easy,,402.7984349580002,404.263898582998,correct,1.4137804159981897,stand,right,5.0,409.8161640000035,,,,,
stim_set/hard-vcom=4-23.png,none.png,unmotivated,2.5,fall,left,hard,,409.81676962500205,412.1556745830021,correct,2.28612679100479,fall,left,4.0,417.0603471659997,,,,,
stim_set/hard-vcom=4-147.png,none.png,unmotivated,2.25,fall,left,hard,,417.0609034579976,418.5491087909977,correct,1.4358709170046495,fall,left,4.0,423.41780324999854,,,,,
stim_set/hard-549.png,none.png,unmotivated,3.25,stand,right,hard,,423.4184351660006,427.35556754100253,correct,3.883449749999272,stand,right,4.0,434.7795458749969,,,,,
stim_set/hard-2.png,none.png,unmotivated,2.75,stand,right,hard,,434.78008841600234,436.9571942080002,correct,2.1274142909969664,stand,right,3.0,442.5579413329978,,,,,
stim_set/hard-vcom=1-136.png,none.png,unmotivated,2.5,fall,left,hard,,442.5584901659968,443.9071386249999,correct,1.3014534169997205,fall,left,5.0,449.7011080000012,,,,,
stim_set/easy-vcom=2-3.png,none.png,unmotivated,4.0,fall,left,easy,,449.7018022909979,452.5992472910002,correct,2.8476034170016646,fall,left,4.0,459.43975254100235,,,,,
stim_set/hard-334.png,none.png,unmotivated,2.0,stand,right,hard,,459.4403495410006,461.20561433299736,incorrect,1.714512416998332,fall,left,5.0,465.6888545000038,,,,,
stim_set/hard-570.png,none.png,unmotivated,2.25,stand,right,hard,,465.68939112500084,468.7908650829995,incorrect,3.0496167080054875,fall,left,4.0,473.6421887079997,,,,,
stim_set/hard-49.png,none.png,unmotivated,2.25,stand,right,hard,,473.6427509999994,475.4747527500003,incorrect,1.7785558750038035,fall,left,5.0,480.3619142910029,,,,,
stim_set/easy-vcom=1-145.png,none.png,unmotivated,3.75,fall,left,easy,,480.3624782080005,481.9161852910038,correct,1.5038131670007715,fall,left,5.0,488.57436108300317,,,,,
stim_set/hard-599.png,none.png,unmotivated,3.0,stand,right,hard,,488.574963416002,491.0556618330011,incorrect,2.43485545799922,fall,left,5.0,497.5689119160015,,,,,
stim_set/hard-vcom=2-147.png,none.png,unmotivated,2.5,fall,left,hard,,497.56943866600335,499.6058191249977,correct,1.9905143750002023,fall,left,4.0,504.4595579579982,,,,,
stim_set/hard-vcom=3-82.png,none.png,unmotivated,2.25,fall,left,hard,,504.4600971660038,505.97236970799713,correct,1.4575822500046345,fall,left,4.0,510.9062804580025,,,,,
stim_set/hard-vcom=4-75.png,none.png,unmotivated,2.5,fall,left,hard,,510.90679487500165,512.2974176249992,correct,1.3352768340046168,fall,left,4.0,517.4118664580019,,,,,
stim_set/hard-14.png,none.png,unmotivated,3.25,stand,right,hard,,517.4124074580031,520.2723838750026,incorrect,2.813513875000353,fall,left,5.0,526.5775390409982,,,,,
stim_set/easy-vcom=1-73.png,none.png,unmotivated,2.5,fall,left,easy,,526.5780940409968,528.0737939160026,correct,1.4546430420014076,fall,left,3.0,534.0606973750037,,,,,
stim_set/easy-vcom=3-142.png,none.png,unmotivated,2.75,fall,left,easy,,534.061255624998,536.2308782499967,correct,2.1145192080002744,fall,left,3.0,542.4404817500035,,,,,
stim_set/easy-vcom=2-147.png,none.png,unmotivated,3.25,fall,left,easy,,542.4411298749983,544.3808182909996,correct,1.8861828330045682,fall,left,4.0,551.5632421249975,,,,,
stim_set/easy-vcom=3-15.png,none.png,unmotivated,2.25,fall,left,easy,,551.5638808329968,553.8558391659972,correct,2.2396227089993768,fall,left,4.0,558.5615232909986,,,,,
stim_set/hard-vcom=3-7.png,none.png,unmotivated,2.75,fall,left,hard,,558.562031458001,560.0726361659981,correct,1.4576448340012575,fall,left,5.0,565.4462111660033,,,,,
stim_set/hard-182.png,none.png,unmotivated,4.0,stand,right,hard,,565.446932083003,566.9559160830031,incorrect,1.4634919169984641,fall,left,4.0,573.3605813750038,,,,,
stim_set/hard-vcom=1-130.png,none.png,unmotivated,2.25,fall,left,hard,,573.3611223749976,575.932849124998,incorrect,2.5243718749989057,stand,right,3.0,581.7001109580015,,,,,
stim_set/hard-vcom=3-110.png,none.png,unmotivated,3.0,fall,left,hard,,581.7006377080032,584.3808854160015,correct,2.634551625000313,fall,left,5.0,591.3777133330004,,,,,
stim_set/hard-82.png,none.png,unmotivated,3.75,stand,right,hard,,591.3782486659984,594.5829410000006,incorrect,3.154391999996733,fall,left,3.0,601.0141909160011,,,,,
stim_set/hard-vcom=1-95.png,none.png,unmotivated,2.0,fall,left,hard,,601.0147468750001,604.1061465829989,incorrect,3.039263665996258,stand,right,3.0,609.8579546660037,,,,,
stim_set/easy-vcom=1-12.png,none.png,unmotivated,2.0,fall,left,easy,,609.8585882080007,611.8324746659999,correct,1.9228940419998253,fall,left,4.0,616.5367467910037,,,,,
stim_set/hard-132.png,none.png,unmotivated,3.75,stand,right,hard,,616.5373218329987,617.9075066250008,incorrect,1.3225460000030578,fall,left,5.0,624.1745805000028,,,,,
stim_set/hard-40.png,none.png,unmotivated,3.0,stand,right,hard,,624.1751107910022,626.9142419580021,incorrect,2.6840887919970555,fall,left,5.0,632.5521893330007,,,,,
stim_set/hard-280.png,none.png,unmotivated,2.25,stand,right,hard,,632.5527365829985,634.5827312499969,incorrect,1.978597166998952,fall,left,5.0,639.5627140830038,,,,,
stim_set/easy-vcom=4-126.png,none.png,unmotivated,2.5,fall,left,easy,,639.5632986249984,641.9809133750022,correct,2.3610712500012596,fall,left,5.0,647.1965839999975,,,,,
stim_set/hard-402.png,none.png,unmotivated,2.5,stand,right,hard,,647.1971714160027,649.0643338329974,incorrect,1.811496457994508,fall,left,5.0,654.4042217500028,,,,,
stim_set/hard-vcom=4-139.png,none.png,unmotivated,4.0,fall,left,hard,,654.4047806660019,656.3392986660037,correct,1.883050999997068,fall,left,5.0,663.3682283329981,663.3685888749967,,,,
stim_set/easy-vcom=3-74.png,fall.png,cooperation,2.25,fall,left,easy,0.00012554199929581955,0.0007409579993691295,6.190904208000575,correct,1.148697999997239,fall,left,4,11.470228958001826,,,,1.01381366699934,
stim_set/hard-566.png,stand.png,cooperation,3.25,stand,right,hard,,11.470781083000475,18.69719704199815,incorrect,2.1824029170020367,fall,left,4,25.150539750000462,,,,12.48117325000203,
stim_set/hard-49.png,fall.png,cooperation,3.0,stand,right,hard,,25.151262082996254,31.240500542000518,incorrect,1.0493007920013042,fall,left,4,37.11508750000212,,,,26.16168574999756,
stim_set/hard-vcom=3-110.png,fall.png,cooperation,2.0,fall,left,hard,,37.11565999999584,44.23921808299929,correct,2.0898726250015898,fall,left,5,49.67736195799807,,,,38.12559458299802,
stim_set/hard-367.png,stand.png,cooperation,3.75,stand,right,hard,,49.67798508299893,58.63093020799715,incorrect,3.91253645800316,fall,left,3,65.28907212500053,,,,50.68870620799862,
stim_set/hard-vcom=2-100.png,stand.png,cooperation,4.0,fall,left,hard,,65.28964837500098,74.24922299999889,correct,3.9227096249960596,fall,left,3,80.89149495799938,,,,66.30090324999765,
stim_set/hard-391.png,stand.png,cooperation,2.75,stand,right,hard,,80.89198479199695,88.11419258300157,incorrect,2.1821215829986613,fall,left,5,94.26674045799882,,,,81.90229929199995,
stim_set/hard-600.png,stand.png,cooperation,3.0,stand,right,hard,,94.26730800000223,100.47412129199802,incorrect,1.1777369170013117,fall,left,4,106.41207008299534,,,,95.27777691699885,
stim_set/easy-vcom=1-87.png,fall.png,cooperation,2.5,fall,left,easy,,106.41268300000229,115.78917625000031,incorrect,4.332506374994409,stand,right,4,123.65926025000226,,,,107.42299491699669,
stim_set/hard-492.png,stand.png,cooperation,2.25,stand,right,hard,,123.65979487499862,130.86407270799828,incorrect,2.1626302500008023,fall,left,3,136.48699124999985,,,,124.67043608299718,
stim_set/hard-vcom=4-147.png,stand.png,cooperation,3.25,fall,left,hard,,136.48771870799828,144.3141763329986,correct,2.781293333006033,fall,left,5,150.62263370800065,,,,137.4982252080008,
stim_set/hard-vcom=1-136.png,stand.png,cooperation,2.75,fall,left,hard,,150.62316724999982,158.4225666669954,correct,2.759229333001713,fall,left,3,164.03356187499594,,,,151.6340993749982,
stim_set/hard-vcom=1-130.png,fall.png,cooperation,2.5,fall,left,hard,,164.03414874999726,174.09082525000122,incorrect,,,,,179.0937732500024,,,,165.04449125000247,
stim_set/easy-vcom=2-20.png,fall.png,cooperation,4.0,fall,left,easy,,179.09431608299928,186.2329147499986,correct,2.1039041670010192,fall,left,4,193.13201587500225,,,,180.10459458299738,
stim_set/hard-177.png,stand.png,cooperation,2.0,stand,right,hard,,193.13260145799723,201.61627020799642,incorrect,3.452164999995148,fall,left,3,206.67607024999597,,,,194.1436748749984,
stim_set/hard-78.png,stand.png,cooperation,2.25,stand,right,hard,,206.67679924999538,213.5807859580018,incorrect,1.8617629999935161,fall,left,5,219.83878374999767,,,,207.687516375001,
stim_set/hard-564.png,fall.png,cooperation,2.25,stand,right,hard,,219.83929545799765,227.21421654200094,incorrect,2.3328869580000173,fall,left,5,232.51742241699685,,,,220.84932604200003,
stim_set/hard-402.png,stand.png,cooperation,3.75,stand,right,hard,,232.51798008300102,241.58323783300148,incorrect,4.0267734580047545,fall,left,4,248.31355145799898,,,,233.52843808299804,
stim_set/easy-vcom=2-147.png,stand.png,cooperation,3.0,fall,left,easy,,248.3141121669978,257.49954679200164,incorrect,4.147904292003659,stand,right,4,263.53873374999966,,,,249.32474808299594,
stim_set/easy-538.png,fall.png,cooperation,2.5,stand,right,easy,,263.53932733299735,270.78925916700246,correct,2.2121118330032914,stand,right,5,276.9603763749983,,,,264.5494150000013,
stim_set/hard-345.png,stand.png,cooperation,2.25,stand,right,hard,,276.9610134579998,283.5996624170002,correct,1.6035309580038302,stand,right,5,289.1991405419976,,,,277.97192283299955,
stim_set/hard-244.png,fall.png,cooperation,2.5,stand,right,hard,,289.1997666249954,297.2309887079973,incorrect,2.9867951670021284,fall,left,4,302.59140758300055,,,,290.21075241699873,
stim_set/hard-2.png,fall.png,cooperation,3.25,stand,right,hard,,302.59195004199864,310.8328611670004,correct,3.203910584001278,stand,right,5,317.6785202499959,,,,303.60203437499877,
stim_set/easy-vcom=1-73.png,fall.png,cooperation,2.5,fall,left,easy,,317.67914920800104,326.58094204199733,correct,3.8678793750004843,fall,left,4,332.0317559999967,,,,318.689678499999,
stim_set/hard-182.png,stand.png,cooperation,2.75,stand,right,hard,,332.0323362919953,339.43097204199876,incorrect,2.3649270000023535,fall,left,4,346.0432066669964,,,,333.0430622499989,
stim_set/easy-13.png,fall.png,cooperation,3.25,stand,right,easy,,346.0437573329982,353.5074094579977,correct,2.4248489169985987,stand,right,5,359.1495890419974,,,,347.0540685829983,
stim_set/hard-vcom=1-3.png,fall.png,cooperation,2.25,fall,left,hard,,359.15016420799657,366.1310339999982,correct,1.9399531670060242,fall,left,5,371.83193124999525,,,,360.16046408299735,
stim_set/easy-344.png,fall.png,cooperation,2.75,stand,right,easy,,371.8326180829972,378.65597762499965,correct,1.7850279999984195,stand,right,5,384.56181370800186,,,,372.84271974999865,
stim_set/hard-vcom=4-80.png,stand.png,cooperation,4.0,fall,left,hard,,384.56246758299676,390.8496330420021,correct,1.2476749170018593,fall,left,3,397.9733689170025,,,,385.57303291699645,
stim_set/hard-vcom=2-137.png,fall.png,cooperation,2.25,fall,left,hard,,397.9739304579998,404.67279804199643,correct,1.660996165999677,fall,left,5,410.54314629200235,,,,398.9843672499992,
stim_set/hard-vcom=2-147.png,fall.png,cooperation,2.5,fall,left,hard,,410.54372583299846,419.38943166699755,correct,3.8087845839982037,fall,left,4,426.2010528749961,,,,411.55440579199785,
stim_set/hard-382.png,fall.png,cooperation,3.75,stand,right,hard,,426.2015674169961,433.39775979200203,incorrect,2.1623546249975334,fall,left,5,440.1701669999966,,,,427.21174874999997,
stim_set/hard-441.png,fall.png,cooperation,2.0,stand,right,hard,,440.17084495799645,447.38296825,correct,2.179144499998074,stand,right,4,452.51609366699995,,,,441.18113599999924,
stim_set/hard-570.png,fall.png,cooperation,2.0,stand,right,hard,,452.5168000830017,460.9827814579985,incorrect,3.42632012499962,fall,left,3,466.365428582998,,,,453.5275455419978,
stim_set/easy-vcom=2-3.png,stand.png,cooperation,3.75,fall,left,easy,,466.3659718330018,475.2227401249984,correct,3.8147947500037844,fall,left,3,482.41028733299754,,,,467.3764581669966,
stim_set/easy-280.png,fall.png,cooperation,3.0,stand,right,easy,,482.4108911669973,489.2644433749956,correct,1.8135980000006384,stand,right,5,495.43574487500155,,,,483.4217099169982,
stim_set/easy-vcom=3-38.png,stand.png,cooperation,2.25,fall,left,easy,,495.436292624996,502.6993060829991,correct,2.224383125001623,fall,left,3,508.0782605419954,,,,496.4467538329991,
stim_set/hard-vcom=1-95.png,fall.png,cooperation,2.5,fall,left,hard,,508.0787925830009,518.1312188750017,incorrect,,,,,523.0695978750009,,,,509.08898162499827,
stim_set/hard-369.png,fall.png,cooperation,2.5,stand,right,hard,,523.0701911669967,529.3645154580008,correct,1.2602262079963111,stand,right,3,535.2246159999995,,,,524.080775082999,
stim_set/hard-vcom=1-50.png,stand.png,cooperation,4.0,fall,left,hard,,535.2251560419973,541.7058504579982,correct,1.4363435830018716,fall,left,4,548.4514239580021,548.4517577919978,,,536.2359582079953,
stim_set/hard-321.png,fall.png,cooperation,2.25,stand,right,hard,568.6191629169989,568.619953292,575.2331606250009,incorrect,1.5762115830002585,fall,left,5,580.334034499996,,,,569.6322865830007,
stim_set/easy-vcom=3-142.png,fall.png,cooperation,3.25,fall,left,easy,,580.3345838749956,588.364489749998,correct,2.9882228749993374,fall,left,4,594.3977599999998,,,,581.34481925,
stim_set/hard-316.png,fall.png,cooperation,2.5,stand,right,hard,,594.3983080420003,601.697514499996,incorrect,2.2601885000040056,fall,left,4,607.0155712920023,,,,595.4088300419971,
stim_set/hard-vcom=2-20.png,stand.png,cooperation,2.0,fall,left,hard,,607.0162070829974,617.0727476249958,incorrect,,,,,621.3198058749986,,,,608.0268657920024,
stim_set/easy-164.png,fall.png,cooperation,3.75,stand,right,easy,,621.320343833002,628.007730917001,correct,1.6481479590001982,stand,right,5,635.4426059999969,,,,622.3307831669954,
stim_set/easy-vcom=4-69.png,stand.png,cooperation,4.0,fall,left,easy,,635.4431565420018,643.6727073329967,correct,3.1853016250024666,fall,left,4,651.045406958001,,,,636.4541759999993,
stim_set/hard-334.png,stand.png,cooperation,2.75,stand,right,hard,,651.0460149579958,657.8578008749973,incorrect,1.7777564999996684,fall,left,5,663.6979280829983,,,,652.0571851249988,
stim_set/hard-132.png,stand.png,cooperation,3.0,stand,right,hard,,663.698472666998,669.9225548749964,incorrect,1.1841823750000913,fall,left,4,675.732178667,,,,664.7088252499962,
stim_set/easy-77.png,fall.png,cooperation,2.5,stand,right,easy,,675.7329167919961,682.2312335419992,correct,1.458710709004663,stand,right,5,688.3686949999974,,,,676.7433249999958,
stim_set/easy-vcom=1-12.png,stand.png,cooperation,2.25,fall,left,easy,,688.3692567079997,696.183115916996,correct,2.7742543750064215,fall,left,3,702.0065492499998,,,,689.3797504999966,
stim_set/hard-214.png,stand.png,cooperation,3.25,stand,right,hard,,702.0072113749993,708.4141697079976,incorrect,1.3623280829997384,fall,left,5,714.5257754999984,,,,703.0182874579987,
stim_set/hard-vcom=4-139.png,stand.png,cooperation,2.75,fall,left,hard,,714.526425666998,721.3079549999966,correct,1.7466761670002597,fall,left,4,727.9468656669997,,,,715.5371262920016,
stim_set/easy-vcom=4-126.png,fall.png,cooperation,2.5,fall,left,easy,,727.9474113329998,735.3062305419953,correct,2.3147728749972885,fall,left,3,740.3760904579976,,,,728.9575066249963,
stim_set/hard-vcom=3-142.png,fall.png,cooperation,4.0,fall,left,hard,,740.376721624998,748.741638792002,correct,3.325478166996618,fall,left,5,756.0042119999998,,,,741.3870927079988,
stim_set/hard-vcom=4-75.png,fall.png,cooperation,2.0,fall,left,hard,,756.0047474579987,764.0562449169956,correct,3.00789495799836,fall,left,4,769.421754666997,,,,757.0151422919953,
stim_set/hard-vcom=4-142.png,stand.png,cooperation,2.25,fall,left,hard,,769.4223973330008,777.9479295420024,incorrect,3.484114792001492,stand,right,3,783.7427845420025,,,,770.4333327080021,
stim_set/hard-549.png,stand.png,cooperation,2.25,stand,right,hard,,783.743364957998,793.1229239169988,correct,4.337362165999366,stand,right,2,798.3654991669973,,,,784.7538505830016,
stim_set/hard-vcom=3-145.png,stand.png,cooperation,3.75,fall,left,hard,,798.366130082999,806.4746144999954,correct,3.0785498339973856,fall,left,4,813.2410280420008,,,,799.3776096669972,
stim_set/easy-vcom=3-15.png,stand.png,cooperation,3.0,fall,left,easy,,813.2416154999955,820.2645220830018,correct,1.9832853749976493,fall,left,4,826.3330776250004,,,,814.251761624997,
stim_set/hard-vcom=1-30.png,fall.png,cooperation,2.5,fall,left,hard,,826.3336077080021,833.0911375419964,correct,1.7246204580005724,fall,left,5,838.6660077920023,,,,827.3438999999998,
stim_set/hard-vcom=4-92.png,stand.png,cooperation,2.25,fall,left,hard,,838.6665616249957,845.272922791999,correct,1.5619718750022002,fall,left,5,850.0539288329965,,,,839.6771903749977,
stim_set/hard-21.png,stand.png,cooperation,2.5,stand,right,hard,,850.0544807920014,858.2164923750024,incorrect,3.127737957998761,fall,left,4,864.2084173330004,,,,851.0648424169995,
stim_set/hard-280.png,stand.png,cooperation,3.25,stand,right,hard,,864.209138541999,872.858333958,correct,3.6091908750022412,stand,right,3,879.2958345419975,,,,865.2202844170024,
stim_set/hard-vcom=2-110.png,fall.png,cooperation,2.5,fall,left,hard,,879.2963244580023,887.272995542,correct,2.938390834002348,fall,left,5,892.6640195829968,,,,880.3063279999988,
stim_set/hard-vcom=3-7.png,fall.png,cooperation,2.75,fall,left,hard,,892.664583042002,899.3748114170012,correct,1.6757145000010496,fall,left,5,904.6978697500017,,,,893.6747119579959,
stim_set/hard-vcom=3-34.png,stand.png,cooperation,3.25,fall,left,hard,,904.6984047500009,911.8413780830015,correct,2.1030303750012536,fall,left,5,917.4935719579953,,,,905.7089960000012,
stim_set/easy-vcom=4-19.png,stand.png,cooperation,2.25,fall,left,easy,,917.4941843749984,924.3080143330008,incorrect,1.7748330419999547,stand,right,4,930.0326185829981,,,,918.5045735000022,
stim_set/hard-7.png,stand.png,cooperation,2.75,stand,right,hard,,930.0332090829979,938.0812261669998,incorrect,3.0027776249989984,fall,left,5,944.0663053749959,,,,931.0439462079958,
stim_set/easy-590.png,fall.png,cooperation,4.0,stand,right,easy,,944.0668504999994,950.7230160420004,correct,1.6112979169993196,stand,right,5,958.3884382920005,,,,945.0773970419978,
stim_set/hard-82.png,stand.png,cooperation,2.25,stand,right,hard,,958.3890594580007,965.2647884580001,correct,1.8325898749972112,stand,right,3,971.4407896249977,,,,959.4002755420006,
stim_set/hard-vcom=4-23.png,fall.png,cooperation,3.0,fall,left,hard,,971.4413293749967,978.8147402920004,correct,2.3340467090019956,fall,left,3,984.843225083001,,,,972.4517813330021,
stim_set/hard-91.png,fall.png,cooperation,3.75,stand,right,hard,,984.8437881249993,991.2480247499989,incorrect,1.3632201660002465,fall,left,5,997.3537187499969,,,,985.8539673749983,
stim_set/hard-599.png,fall.png,cooperation,2.0,stand,right,hard,,997.3542607919953,1004.1480060829999,incorrect,1.7610349579990725,fall,left,4,1009.5492519580002,,,,998.3645938749978,
stim_set/easy-411.png,stand.png,cooperation,2.0,stand,right,easy,,1009.5497676250016,1016.0813437079996,incorrect,1.4873887080029817,fall,left,2,1021.9010365829963,,,,1010.5607768749978,
stim_set/easy-vcom=1-145.png,stand.png,cooperation,3.75,fall,left,easy,,1021.9016368750017,1028.2314487920012,correct,1.2875079169971286,fall,left,5,1035.1618538330004,,,,1022.9126038749964,
stim_set/hard-40.png,stand.png,cooperation,3.0,stand,right,hard,,1035.1624162500011,1041.6000172919958,incorrect,1.399587416999566,fall,left,5,1047.403550707997,,,,1036.1728396249964,
stim_set/hard-vcom=2-16.png,stand.png,cooperation,2.25,fall,left,hard,,1047.4041677080022,1054.5162362499977,incorrect,2.0721153340055025,stand,right,4,1060.7667674170007,,,,1048.4148626249953,
stim_set/hard-14.png,fall.png,cooperation,2.5,stand,right,hard,,1060.7674975830014,1068.6245472919982,incorrect,2.8288613749973592,fall,left,4,1074.368263999997,,,,1061.7779228329964,
stim_set/hard-vcom=3-82.png,fall.png,cooperation,2.5,fall,left,hard,,1074.3688271669962,1080.7980000000025,correct,1.3874177500038058,fall,left,5,1085.6078611249977,,,,1075.3792174580012,
stim_set/easy-vcom=2-94.png,stand.png,cooperation,4.0,fall,left,easy,,1085.6084560829986,1093.756436124997,correct,3.107994250000047,fall,left,5,1101.2690712080002,1101.2694743329994,,,1086.6193489579964,
stim_set/easy-vcom=3-74.png,fall.png,competition,2.25,fall,left,easy,0.00015345799329224974,0.0007602080004289746,8.080659582999942,correct,3.0335952919995184,fall,left,4.0,14.166674666994366,,,,1.0135277079971274,
stim_set/hard-vcom=1-136.png,fall.png,competition,3.25,fall,left,hard,,14.167257832996256,22.31369079199795,correct,3.108085083003971,fall,left,4.0,29.253948749996198,,,,15.177354791994732,
stim_set/hard-369.png,fall.png,competition,3.0,stand,right,hard,,29.25449399999343,35.872434082994005,correct,1.5839831670018611,stand,right,4.0,41.77107708299445,,,,30.265483207993388,
stim_set/hard-vcom=2-147.png,stand.png,competition,2.0,fall,left,hard,,41.77161324999906,49.95786554199731,correct,3.1559871249992284,fall,left,4.0,55.62868916699517,,,,42.78250199999457,
stim_set/hard-vcom=2-20.png,stand.png,competition,3.75,fall,left,hard,,55.629449207997816,62.980661749999854,correct,2.307790250000835,fall,left,4.0,70.09902424999747,,,,56.640186499993426,
stim_set/easy-vcom=1-73.png,fall.png,competition,4.0,fall,left,easy,,70.09976033299608,78.65720966699881,incorrect,3.528803499997593,stand,right,4.0,86.65985758299941,,,,71.109985916999,
stim_set/hard-132.png,fall.png,competition,2.75,stand,right,hard,,86.66047566699854,93.5991828329934,incorrect,1.9031926249954267,fall,left,3.0,99.14549962499586,,,,87.67117070799576,
stim_set/easy-vcom=2-20.png,stand.png,competition,3.0,fall,left,easy,,99.1460512919948,106.29721633299778,correct,2.1114363329979824,fall,left,4.0,112.39506354199692,,,,100.15658929199707,
stim_set/hard-280.png,fall.png,competition,2.5,stand,right,hard,,112.39561745799436,119.74739079199936,incorrect,2.3074707909981957,fall,left,3.0,125.2789340829986,,,,113.40636529199399,
stim_set/hard-600.png,fall.png,competition,2.25,stand,right,hard,,125.27946483299456,133.1471675829962,incorrect,2.833600374993693,fall,left,5.0,139.17420687499543,,,,126.2896059169943,
stim_set/hard-334.png,stand.png,competition,3.25,stand,right,hard,,139.17482424999613,146.82241304199854,incorrect,2.6088662920010397,fall,left,3.0,152.54095091699855,,,,140.18571845800034,
stim_set/easy-vcom=1-12.png,stand.png,competition,2.75,fall,left,easy,,152.54165820799972,162.59924449999383,incorrect,,,,,168.16928795799322,,,,153.5524447919961,
stim_set/easy-vcom=2-147.png,fall.png,competition,2.5,fall,left,easy,,168.16981879199741,175.00776499999486,correct,1.8012619169967363,fall,left,5.0,180.81600833300038,,,,169.17959187499946,
stim_set/easy-590.png,stand.png,competition,4.0,stand,right,easy,,180.81653899999947,187.4075114579973,correct,1.5512781249999534,stand,right,3.0,194.52269949999757,,,,181.82706499999767,
stim_set/hard-91.png,fall.png,competition,2.0,stand,right,hard,,194.52328091699746,201.22242279199418,incorrect,1.6576302089961246,fall,left,5.0,206.05064470799698,,,,195.53361208299611,
stim_set/hard-vcom=1-95.png,stand.png,competition,2.25,fall,left,hard,,206.05118666699852,213.05587554199883,incorrect,1.964951292000478,stand,right,4.0,219.0702135419997,,,,207.062013499999,
stim_set/hard-402.png,stand.png,competition,2.25,stand,right,hard,,219.07075633299974,227.49717295799925,incorrect,3.384170000004815,fall,left,5.0,233.1658364169998,,,,220.08105866699768,
stim_set/hard-49.png,fall.png,competition,3.75,stand,right,hard,,233.16652699999398,240.44745562499887,incorrect,2.236132958998496,fall,left,3.0,247.1288288329961,,,,234.1766849999985,
stim_set/easy-vcom=4-69.png,stand.png,competition,3.0,fall,left,easy,,247.12939979200016,255.68096899999364,correct,3.508224915996834,fall,left,3.0,262.660454249999,,,,248.14020545799576,
stim_set/easy-vcom=3-38.png,stand.png,competition,2.5,fall,left,easy,,262.66123125000007,272.1741334580001,incorrect,4.473583875005716,stand,right,3.0,278.10467841699574,,,,263.67188666699803,
stim_set/hard-vcom=3-7.png,fall.png,competition,2.25,fall,left,hard,,278.1052098329965,285.0807996669973,correct,1.9356235829982325,fall,left,5.0,290.55888391699415,,,,279.115640582997,
stim_set/easy-vcom=3-142.png,stand.png,competition,2.5,fall,left,easy,,290.5594290829977,298.0642850419972,incorrect,2.4629287909992854,stand,right,4.0,304.2243804999962,,,,291.5698670419952,
stim_set/hard-345.png,stand.png,competition,3.25,stand,right,hard,,304.2249429999938,310.98226608299586,correct,1.7215861250006128,stand,right,5.0,317.48667804199795,,,,305.23566279199434,
stim_set/easy-164.png,stand.png,competition,2.5,stand,right,easy,,317.48721145799936,324.08918087499484,correct,1.5578537920009694,stand,right,5.0,329.55191499999637,,,,318.49772287499945,
stim_set/hard-2.png,fall.png,competition,2.75,stand,right,hard,,329.55246537499625,338.51575529199914,correct,3.9259636670030886,stand,right,4.0,344.7152366669979,,,,330.563081332999,
stim_set/hard-vcom=4-75.png,stand.png,competition,3.25,fall,left,hard,,344.71579358299635,351.3476139579943,correct,1.5884269579983084,fall,left,5.0,357.6225015419986,,,,345.7266622919997,
stim_set/hard-40.png,stand.png,competition,2.25,stand,right,hard,,357.6230725829955,364.2576932919983,incorrect,1.5965344579963132,fall,left,5.0,370.0542349169991,,,,358.63330758299713,
stim_set/hard-vcom=2-100.png,fall.png,competition,2.75,fall,left,hard,,370.05481383299775,376.5161799579946,correct,1.4255855840019653,fall,left,5.0,381.97703529199504,,,,371.0650661669934,
stim_set/hard-vcom=3-145.png,stand.png,competition,4.0,fall,left,hard,,381.97762208299537,389.4976104169982,correct,2.4857750419978397,fall,left,5.0,397.3814866249959,,,,382.987965124994,
stim_set/hard-82.png,fall.png,competition,2.25,stand,right,hard,,397.38211087499803,405.42475833299983,incorrect,3.0039604580015293,fall,left,3.0,410.96640920799837,,,,398.3929239169957,
stim_set/easy-vcom=2-3.png,fall.png,competition,2.5,fall,left,easy,,410.9669985829969,418.4476976669976,correct,2.4386534580044104,fall,left,4.0,424.4006412919989,,,,411.9771817919973,
stim_set/hard-566.png,fall.png,competition,3.75,stand,right,hard,,424.4011924169972,432.06603687499586,incorrect,2.6250163329968927,fall,left,4.0,439.3947279999993,,,,425.41141054199403,
stim_set/hard-214.png,stand.png,competition,2.0,stand,right,hard,,439.3952628749976,446.3910962919981,incorrect,1.9540094580006555,fall,left,4.0,451.4190269579994,,,,440.40606154199486,
stim_set/easy-vcom=4-19.png,fall.png,competition,2.0,fall,left,easy,,451.41959254199895,460.7643851249959,incorrect,4.301861583000574,stand,right,3.0,465.7149619999982,,,,452.429722791996,
stim_set/easy-280.png,fall.png,competition,3.75,stand,right,easy,,465.715623666998,473.50581195799896,correct,2.7510624579954315,stand,right,3.0,480.6668124999997,,,,466.72595962499327,
stim_set/hard-321.png,stand.png,competition,3.0,stand,right,hard,,480.66736766699614,487.1746546249997,incorrect,1.4726810840002145,fall,left,5.0,494.1414887919964,,,,481.67832908299897,
stim_set/hard-182.png,stand.png,competition,2.25,stand,right,hard,,494.1420274169941,501.4144277079977,incorrect,2.2385149999972787,fall,left,5.0,507.0322838329957,,,,495.15263254199823,
stim_set/hard-vcom=3-34.png,stand.png,competition,2.5,fall,left,hard,,507.0328931669937,513.4245621249938,correct,1.3512618749955436,fall,left,5.0,518.9112960829952,,,,508.04349420799554,
stim_set/easy-538.png,fall.png,competition,2.5,stand,right,easy,,518.9118418329963,525.3394530829974,correct,1.3895604170029399,stand,right,5.0,530.7193852079945,,,,519.9220088749935,
stim_set/hard-244.png,stand.png,competition,4.0,stand,right,hard,,530.7200895829956,539.0580137919968,incorrect,3.2985751669984893,fall,left,5.0,546.211469582995,546.2118054579987,,,531.7303760419964,
stim_set/easy-13.png,stand.png,competition,2.25,stand,right,easy,564.2906384999951,564.2914434579942,571.2228733329976,correct,1.886765374998504,stand,right,5.0,576.4939126249957,,,,565.302806707994,
stim_set/hard-vcom=4-23.png,stand.png,competition,3.25,fall,left,hard,,576.4945073329945,583.532265582995,correct,2.003902750002453,fall,left,4.0,594.7924532079996,,,,577.5045747080003,
stim_set/hard-vcom=4-80.png,fall.png,competition,2.5,fall,left,hard,,594.7929865419937,601.4477203329952,correct,1.6105575830006271,fall,left,5.0,606.4074429999963,,,,595.8038576249965,
stim_set/easy-77.png,stand.png,competition,2.0,stand,right,easy,,606.4079850419948,613.956175583,correct,2.5083813329983973,stand,right,5.0,619.5009890000001,,,,607.4187183749964,
stim_set/hard-177.png,fall.png,competition,3.75,stand,right,hard,,619.5015560419997,625.9077039169932,incorrect,1.3779059169974062,fall,left,5.0,632.6892165829995,,,,620.5116492499948,
stim_set/easy-vcom=2-94.png,fall.png,competition,4.0,fall,left,easy,,632.6897832079993,641.3745555419955,correct,3.650496292000753,fall,left,5.0,648.2115126249993,,,,633.6997993329933,
stim_set/hard-vcom=1-30.png,fall.png,competition,2.75,fall,left,hard,,648.2120907079952,655.4243596669985,correct,2.1792239580026944,fall,left,5.0,661.2911315419988,,,,649.2224454999961,
stim_set/easy-vcom=3-15.png,fall.png,competition,3.0,fall,left,easy,,661.2918019169956,669.4644967079947,correct,3.133187542000087,fall,left,4.0,675.2989925000003,,,,662.3019935419942,
stim_set/hard-vcom=1-3.png,stand.png,competition,2.5,fall,left,hard,,675.2995522499988,682.0830453329983,correct,1.7475222499997471,fall,left,5.0,689.6763233749953,,,,676.3098349999999,
stim_set/easy-411.png,stand.png,competition,2.25,stand,right,easy,,689.6768518329991,696.2562472919963,correct,1.5353259580006124,stand,right,4.0,701.8470113749936,,,,690.6876387919983,
stim_set/easy-344.png,fall.png,competition,3.25,stand,right,easy,,701.8475767079943,709.433457082996,correct,2.5510307910008123,stand,right,4.0,715.8062531670002,,,,702.858072957999,
stim_set/hard-vcom=3-142.png,fall.png,competition,2.75,fall,left,hard,,715.8068651249997,723.6896166669977,correct,2.8384002090024296,fall,left,5.0,729.9786750829953,,,,716.8175719169957,
stim_set/hard-vcom=3-110.png,stand.png,competition,2.5,fall,left,hard,,729.9792240829993,736.422886458,correct,1.4092908339953285,fall,left,4.0,742.1211817919975,,,,730.9898824999983,
stim_set/hard-441.png,stand.png,competition,4.0,stand,right,hard,,742.1217147079951,750.4980241669983,correct,3.338546334001877,stand,right,3.0,757.4841239169983,,,,743.1321679579996,
stim_set/hard-570.png,stand.png,competition,2.0,stand,right,hard,,757.4846865419968,764.4249742079993,incorrect,1.8999865410005439,fall,left,5.0,769.2841906670001,,,,758.4954641249933,
stim_set/hard-492.png,fall.png,competition,2.25,stand,right,hard,,769.2847589999948,777.1396886250003,incorrect,2.814074249996338,fall,left,5.0,782.189874207994,,,,770.2948679999972,
stim_set/hard-vcom=3-82.png,stand.png,competition,2.25,fall,left,hard,,782.1903872080002,788.5479770419987,correct,1.3148836670006858,fall,left,5.0,793.4861374579996,,,,783.2009320829967,
stim_set/hard-vcom=1-50.png,fall.png,competition,3.75,fall,left,hard,,793.4868194999945,799.9143864169963,correct,1.3842050419989391,fall,left,4.0,806.6021475829983,,,,794.4971895829948,
stim_set/hard-vcom=2-137.png,stand.png,competition,3.0,fall,left,hard,,806.6027524999954,813.2981061249957,correct,1.6567702500033192,fall,left,4.0,819.541632291999,,,,807.6131424579944,
stim_set/hard-vcom=4-147.png,stand.png,competition,2.5,fall,left,hard,,819.5422024999934,826.2229621669977,correct,1.636614749993896,fall,left,5.0,831.9530202079986,,,,820.5527199169957,
stim_set/hard-599.png,stand.png,competition,2.25,stand,right,hard,,831.9535790419977,840.3978095419952,incorrect,3.4106607919966336,fall,left,4.0,845.6942500829973,,,,832.9641330419981,
stim_set/hard-vcom=4-139.png,fall.png,competition,2.5,fall,left,hard,,845.6948085419936,852.1228849999969,correct,1.389434374999837,fall,left,4.0,857.8490102919968,,,,846.7048436249969,
stim_set/hard-vcom=1-130.png,fall.png,competition,3.25,fall,left,hard,,857.8495657499952,866.6732212499992,incorrect,3.784097457995813,stand,right,3.0,873.0233290420001,,,,858.8600677079958,
stim_set/easy-vcom=1-87.png,stand.png,competition,2.5,fall,left,easy,,873.0239213749956,880.7999860419949,incorrect,2.7372850000028848,stand,right,3.0,886.2238622919976,,,,874.034673999995,
stim_set/hard-549.png,stand.png,competition,2.75,stand,right,hard,,886.2243959999977,894.1062146249969,incorrect,2.840642500006652,fall,left,5.0,900.0920212919956,,,,887.2349709579939,
stim_set/hard-391.png,stand.png,competition,3.25,stand,right,hard,,900.0926499169947,906.3981188749968,incorrect,1.265704249999544,fall,left,5.0,912.5979945,,,,901.103623707997,
stim_set/hard-vcom=2-110.png,fall.png,competition,2.25,fall,left,hard,,912.5985551249977,919.4830463749968,correct,1.8514489579974909,fall,left,5.0,924.5981107499974,,,,913.6087201249976,
stim_set/hard-vcom=4-142.png,fall.png,competition,2.75,fall,left,hard,,924.5985934579946,931.2732402080001,correct,1.6341150840016783,fall,left,5.0,936.5140284999943,,,,925.6086722499967,
stim_set/hard-564.png,stand.png,competition,4.0,stand,right,hard,,936.5146648329975,946.2898755419957,incorrect,4.731951458998083,fall,left,5.0,952.963585749996,,,,937.5250101669952,
stim_set/hard-vcom=2-16.png,stand.png,competition,2.25,fall,left,hard,,952.9642462499977,959.9085822499983,correct,1.9033160830003908,fall,left,3.0,965.4795977079992,,,,953.9752936669977,
stim_set/easy-vcom=4-126.png,fall.png,competition,3.0,fall,left,easy,,965.4801658750004,973.5415020419968,correct,3.021743708995928,fall,left,3.0,979.9989031669977,,,,966.490575416996,
stim_set/hard-vcom=4-92.png,fall.png,competition,3.75,fall,left,hard,,979.9994473329933,987.8066292919976,correct,2.7635367080001743,fall,left,5.0,996.6599049579963,,,,981.0097252079939,
stim_set/hard-7.png,fall.png,competition,2.0,stand,right,hard,,996.6604638329953,1003.5149390419974,incorrect,1.8091126660001464,fall,left,3.0,1009.3249437919948,,,,997.6712085830003,
stim_set/hard-382.png,fall.png,competition,2.0,stand,right,hard,,1009.3256829579988,1015.5733830419997,incorrect,1.2147177500010002,fall,left,4.0,1022.3976279169948,,,,1010.3357832499968,
stim_set/hard-316.png,stand.png,competition,3.75,stand,right,hard,,1022.3981649169946,1029.148422457998,incorrect,1.710791915997106,fall,left,3.0,1035.6819164579938,,,,1023.4088642499993,
stim_set/hard-367.png,fall.png,competition,3.0,stand,right,hard,,1035.6824658749974,1042.0066510420004,incorrect,1.2847773329995107,fall,left,5.0,1048.2430411669993,,,,1036.6926382919992,
stim_set/hard-21.png,stand.png,competition,2.25,stand,right,hard,,1048.2436358329942,1057.373590874995,incorrect,4.0893955000065025,fall,left,5.0,1063.0554491669973,,,,1049.2547119579976,
stim_set/hard-78.png,fall.png,competition,2.5,stand,right,hard,,1063.0563503749943,1069.6982179579936,incorrect,1.5985110830006306,fall,left,3.0,1075.4820967079938,,,,1064.0676759579947,
stim_set/easy-vcom=1-145.png,stand.png,competition,2.5,fall,left,easy,,1075.482628916994,1082.1400145419977,correct,1.6150167919986416,fall,left,5.0,1087.6722509169997,,,,1076.493479249999,
stim_set/hard-14.png,fall.png,competition,4.0,stand,right,hard,,1087.6728164169979,1094.564956874994,incorrect,1.8588650829988185,fall,left,5.0,1101.6841559169989,1101.6844948750004,,,1088.6829121249975,
stim_set/hard-410.png,stand.png,cooperation,3.75,stand,right,hard,2.8750000637955964e-06,0.0023403330051223747,6.572672791000514,correct,1.5588327500008745,stand,right,4,13.929223457998887,13.929769624999608,,,1.015567624999676,
stim_set/hard-188.png,stand.png,competition,4.0,stand,right,hard,2.916996891144663e-06,0.0021652089999406603,7.05323491699528,incorrect,2.036305292000179,fall,left,5.0,15.803501583999605,15.804014208995795,,,1.0158969999974945,
