towers,bet,condition,iti,corr_choice,corr_key,difficulty,block_start,trial_start,stim_on,acc,rt,part_choice,part_key,confidence,trial_end,block_end,updated_score,condition_first,cue_on
stim_set/easy-vcom=2-20.png,none.png,unmotivated,2.25,fall,left,easy,4.4580010580830284e-06,0.0027934160025324672,1.9966209159974824,correct,1.9376475829994888,fall,left,5.0,8.484449458002928,,240.0,competition,
stim_set/easy-vcom=4-19.png,none.png,unmotivated,3.25,fall,left,easy,,8.486058082999081,13.365320791002887,incorrect,4.826718832999177,stand,right,3.0,20.29060700000264,,460.0,,
stim_set/hard-vcom=2-137.png,none.png,unmotivated,3.0,fall,left,hard,,20.291133874998195,22.45506670800387,correct,2.113075084002048,fall,left,4.0,29.38542883300397,,,,
stim_set/hard-vcom=3-34.png,none.png,unmotivated,2.0,fall,left,hard,,29.385965875000693,31.315192916001248,correct,1.8768346670040048,fall,left,4.0,36.61582154100324,,,,
stim_set/hard-564.png,none.png,unmotivated,3.75,stand,right,hard,,36.61636970799736,38.880072250001824,incorrect,2.207944875000976,fall,left,5.0,45.253820375000934,,,,
stim_set/hard-21.png,none.png,unmotivated,4.0,stand,right,hard,,45.25455558300018,49.49660800000129,incorrect,4.18981608300237,fall,left,4.0,56.503348707999976,,,,
stim_set/hard-vcom=3-145.png,none.png,unmotivated,2.75,fall,left,hard,,56.5039115000036,61.56337616599922,incorrect,,,,,67.20267162500386,,,,
stim_set/easy-vcom=1-87.png,none.png,unmotivated,3.0,fall,left,easy,,67.2032659999968,68.59688237500086,incorrect,1.3380047079990618,stand,right,3.0,75.7083620830017,,,,
stim_set/hard-vcom=2-16.png,none.png,unmotivated,2.5,fall,left,hard,,75.70904479100136,78.4652736249991,correct,2.7039867919957032,fall,left,3.0,83.47565479100012,,,,
stim_set/hard-91.png,none.png,unmotivated,2.25,stand,right,hard,,83.47622916600085,86.31339058300364,incorrect,2.782954624999548,fall,left,3.0,91.56991429100162,,,,
stim_set/hard-214.png,none.png,unmotivated,3.25,stand,right,hard,,91.57059287500307,93.29825508299835,incorrect,1.6768172910014982,fall,left,4.0,99.89840783300316,,,,
stim_set/hard-vcom=1-3.png,none.png,unmotivated,2.75,fall,left,hard,,99.89903191600023,102.23855387500222,correct,2.2853814580012117,fall,left,5.0,107.80620725000335,,,,
stim_set/hard-441.png,none.png,unmotivated,2.5,stand,right,hard,,107.80672845800294,112.27184958299769,correct,4.414753707998899,stand,right,2.0,118.3316689159983,,,,
stim_set/easy-344.png,none.png,unmotivated,4.0,stand,right,easy,,118.332266874997,119.65663516600034,correct,1.2781634580023822,stand,right,4.0,126.57579933299714,,,,
stim_set/hard-177.png,none.png,unmotivated,2.0,stand,right,hard,,126.57635950000258,128.81339408300119,incorrect,2.1913760829993407,fall,left,5.0,133.48692758299876,,,,
stim_set/hard-321.png,none.png,unmotivated,2.25,stand,right,hard,,133.4874728750001,134.92186799999763,incorrect,1.3825477080026758,fall,left,5.0,139.62609033300396,,,,
stim_set/easy-vcom=4-69.png,none.png,unmotivated,2.25,fall,left,easy,,139.62667212499946,143.09686433299794,correct,3.4150769580010087,fall,left,3.0,148.77903937500378,,,,
stim_set/hard-vcom=1-30.png,none.png,unmotivated,3.75,fall,left,hard,,148.779771583002,150.81353800000215,correct,1.984235292002268,fall,left,4.0,158.4316301660001,,,,
stim_set/hard-vcom=2-110.png,none.png,unmotivated,3.0,fall,left,hard,,158.43229504099872,160.72186083300042,correct,2.2384354170062584,fall,left,5.0,167.21639145800145,,,,
stim_set/easy-vcom=3-38.png,none.png,unmotivated,2.5,fall,left,easy,,167.21695408300002,169.86367054100262,correct,2.590564041995094,fall,left,3.0,176.01296887500214,,,,
stim_set/hard-vcom=2-20.png,none.png,unmotivated,2.25,fall,left,hard,,176.01351874999816,178.68033991599805,correct,2.611364791999222,fall,left,3.0,184.36309837499718,,,,
stim_set/hard-345.png,none.png,unmotivated,2.5,stand,right,hard,,184.36366783300042,186.48036145800145,correct,2.0642324999935227,stand,right,4.0,191.515632415998,,,,
stim_set/hard-vcom=3-142.png,none.png,unmotivated,3.25,fall,left,hard,,191.5161820830035,193.85534120800003,correct,2.2829201669956087,fall,left,3.0,200.63520720799718,,,,
stim_set/hard-367.png,none.png,unmotivated,2.5,stand,right,hard,,200.6357988750024,203.37191829099902,incorrect,2.6838654999955907,fall,left,3.0,209.1327202910033,,,,
stim_set/hard-vcom=4-92.png,none.png,unmotivated,2.75,fall,left,hard,,209.1332806659993,211.58233470800042,correct,2.3969383330040728,fall,left,3.0,217.29367574999924,,,,
stim_set/hard-244.png,none.png,unmotivated,3.25,stand,right,hard,,217.29442174999713,219.91381812500182,incorrect,2.5630216659992584,fall,left,3.0,226.97050391600348,,,,
stim_set/hard-391.png,none.png,unmotivated,2.25,stand,right,hard,,226.97111437500283,229.11559237499748,incorrect,2.0973507500020787,fall,left,3.0,235.26694683299863,,,,
stim_set/easy-vcom=2-94.png,none.png,unmotivated,2.75,fall,left,easy,,235.26750349999932,238.00538249999957,correct,2.686064000001352,fall,left,3.0,243.76651920800214,,,,
stim_set/hard-vcom=4-142.png,none.png,unmotivated,4.0,fall,left,hard,,243.76705875000332,245.65539462499873,correct,1.8361653750034748,fall,left,3.0,252.86443091600086,,,,
stim_set/easy-vcom=3-74.png,none.png,unmotivated,2.25,fall,left,easy,,252.8650341660032,254.54036137500225,correct,1.6245868330006488,fall,left,5.0,259.35331945800135,,,,
stim_set/easy-13.png,none.png,unmotivated,2.5,stand,right,easy,,259.3538744160033,261.0721212080025,correct,1.6621980840063768,stand,right,4.0,266.5245754159987,,,,
stim_set/hard-vcom=4-80.png,none.png,unmotivated,3.75,fall,left,hard,,266.52514187499764,267.9239077500024,correct,1.347180249998928,fall,left,5.0,274.11788470800093,,,,
stim_set/hard-369.png,none.png,unmotivated,2.0,stand,right,hard,,274.11842862499907,275.3721439159999,correct,1.2075839169992832,stand,right,3.0,280.5931416660024,,,,
stim_set/hard-492.png,none.png,unmotivated,2.0,stand,right,hard,,280.59373079099896,282.51379450000235,incorrect,1.8655697909998707,fall,left,4.0,287.61587887500355,,,,
stim_set/hard-vcom=1-50.png,none.png,unmotivated,3.75,fall,left,hard,,287.6164199159976,290.14065449999913,correct,2.4726386250040377,fall,left,4.0,297.07947033300303,,,,
stim_set/easy-280.png,none.png,unmotivated,3.0,stand,right,easy,,297.0800694999998,298.47364854100306,correct,1.34653645799699,stand,right,5.0,304.1195675409981,,,,
stim_set/hard-7.png,none.png,unmotivated,2.25,stand,right,hard,,304.1200985000032,305.7491386659967,incorrect,1.5765684159996454,fall,left,4.0,311.09818041600374,,,,
stim_set/easy-590.png,none.png,unmotivated,2.5,stand,right,easy,,311.0987616659986,313.06386608300085,correct,1.9089125829996192,stand,right,4.0,319.0443179580034,,,,
stim_set/hard-600.png,none.png,unmotivated,2.5,stand,right,hard,,319.04503954100073,320.7408900829978,incorrect,1.653955457994016,fall,left,5.0,325.8995400409985,,,,
stim_set/easy-411.png,none.png,unmotivated,4.0,stand,right,easy,,325.90007958299975,327.4638904579988,correct,1.5077849159933976,stand,right,5.0,335.0898413329996,335.09016862499993,,,
stim_set/hard-78.png,none.png,unmotivated,2.25,stand,right,hard,345.68760812500125,345.688459625002,347.26560558300116,incorrect,1.5273321669956204,fall,left,4.0,352.8984787910013,,,,
stim_set/hard-vcom=2-100.png,none.png,unmotivated,3.25,fall,left,hard,,352.8990459580018,354.5989652499993,correct,1.651815458004421,fall,left,4.0,360.63432537500194,,,,
stim_set/easy-538.png,none.png,unmotivated,2.5,stand,right,easy,,360.6349695829995,362.3221404580036,correct,1.6363223750013276,stand,right,5.0,367.3083056660033,,,,
stim_set/hard-316.png,none.png,unmotivated,2.0,stand,right,hard,,367.30894875000376,369.74737704099965,incorrect,2.383231416999479,fall,left,4.0,374.27965837500227,,,,
stim_set/hard-566.png,none.png,unmotivated,3.75,stand,right,hard,,374.28019925000257,378.7577342910008,incorrect,4.424949749998632,fall,left,5.0,386.41544712500036,,,,
stim_set/easy-164.png,none.png,unmotivated,4.0,stand,right,easy,,386.4159851250006,387.8055525410018,correct,1.3332155419993796,stand,right,5.0,395.1607831660003,,,,
stim_set/hard-382.png,none.png,unmotivated,2.75,stand,right,hard,,395.1613483330002,396.98253187500086,incorrect,1.7798258340044413,fall,left,5.0,402.7979477909976,,,,
stim_set/easy-77.png,none.png,unmotivated,3.0,stand,right,easy,,402.7984349580002,404.26389858299814,correct,1.4137804159981897,stand,right,5.0,409.8161640000035,,,,
stim_set/hard-vcom=4-23.png,none.png,unmotivated,2.5,fall,left,hard,,409.81676962500205,412.1556745830021,correct,2.28612679100479,fall,left,4.0,417.0603471659997,,,,
stim_set/hard-vcom=4-147.png,none.png,unmotivated,2.25,fall,left,hard,,417.06090345799754,418.5491087909977,correct,1.4358709170046495,fall,left,4.0,423.41780324999854,,,,
stim_set/hard-549.png,none.png,unmotivated,3.25,stand,right,hard,,423.4184351660006,427.35556754100253,correct,3.883449749999272,stand,right,4.0,434.77954587499704,,,,
stim_set/hard-2.png,none.png,unmotivated,2.75,stand,right,hard,,434.78008841600234,436.9571942080002,correct,2.1274142909969664,stand,right,3.0,442.5579413329978,,,,
stim_set/hard-vcom=1-136.png,none.png,unmotivated,2.5,fall,left,hard,,442.5584901659968,443.90713862499985,correct,1.3014534169997205,fall,left,5.0,449.70110800000117,,,,
stim_set/easy-vcom=2-3.png,none.png,unmotivated,4.0,fall,left,easy,,449.7018022909979,452.5992472910002,correct,2.8476034170016646,fall,left,4.0,459.4397525410023,,,,
stim_set/hard-334.png,none.png,unmotivated,2.0,stand,right,hard,,459.4403495410006,461.20561433299736,incorrect,1.714512416998332,fall,left,5.0,465.6888545000038,,,,
stim_set/hard-570.png,none.png,unmotivated,2.25,stand,right,hard,,465.68939112500084,468.7908650829995,incorrect,3.0496167080054875,fall,left,4.0,473.64218870799965,,,,
stim_set/hard-49.png,none.png,unmotivated,2.25,stand,right,hard,,473.6427509999994,475.4747527500003,incorrect,1.7785558750038035,fall,left,5.0,480.3619142910029,,,,
stim_set/easy-vcom=1-145.png,none.png,unmotivated,3.75,fall,left,easy,,480.3624782080005,481.9161852910038,correct,1.5038131670007715,fall,left,5.0,488.57436108300317,,,,
stim_set/hard-599.png,none.png,unmotivated,3.0,stand,right,hard,,488.574963416002,491.0556618330011,incorrect,2.43485545799922,fall,left,5.0,497.5689119160015,,,,
stim_set/hard-vcom=2-147.png,none.png,unmotivated,2.5,fall,left,hard,,497.56943866600335,499.6058191249977,correct,1.9905143750002023,fall,left,4.0,504.4595579579982,,,,
stim_set/hard-vcom=3-82.png,none.png,unmotivated,2.25,fall,left,hard,,504.4600971660038,505.97236970799713,correct,1.4575822500046345,fall,left,4.0,510.90628045800264,,,,
stim_set/hard-vcom=4-75.png,none.png,unmotivated,2.5,fall,left,hard,,510.90679487500165,512.2974176249992,correct,1.3352768340046168,fall,left,4.0,517.4118664580019,,,,
stim_set/hard-14.png,none.png,unmotivated,3.25,stand,right,hard,,517.4124074580031,520.2723838750026,incorrect,2.813513875000353,fall,left,5.0,526.5775390409982,,,,
stim_set/easy-vcom=1-73.png,none.png,unmotivated,2.5,fall,left,easy,,526.5780940409968,528.0737939160026,correct,1.4546430420014076,fall,left,3.0,534.0606973750037,,,,
stim_set/easy-vcom=3-142.png,none.png,unmotivated,2.75,fall,left,easy,,534.061255624998,536.2308782499967,correct,2.1145192080002744,fall,left,3.0,542.4404817500035,,,,
stim_set/easy-vcom=2-147.png,none.png,unmotivated,3.25,fall,left,easy,,542.4411298749983,544.3808182909996,correct,1.886182833004568,fall,left,4.0,551.5632421249975,,,,
stim_set/easy-vcom=3-15.png,none.png,unmotivated,2.25,fall,left,easy,,551.5638808329968,553.8558391659972,correct,2.2396227089993768,fall,left,4.0,558.5615232909986,,,,
stim_set/hard-vcom=3-7.png,none.png,unmotivated,2.75,fall,left,hard,,558.562031458001,560.0726361659981,correct,1.4576448340012575,fall,left,5.0,565.4462111660033,,,,
stim_set/hard-182.png,none.png,unmotivated,4.0,stand,right,hard,,565.446932083003,566.9559160830031,incorrect,1.463491916998464,fall,left,4.0,573.3605813750038,,,,
stim_set/hard-vcom=1-130.png,none.png,unmotivated,2.25,fall,left,hard,,573.3611223749976,575.932849124998,incorrect,2.5243718749989057,stand,right,3.0,581.7001109580015,,,,
stim_set/hard-vcom=3-110.png,none.png,unmotivated,3.0,fall,left,hard,,581.7006377080032,584.3808854160015,correct,2.634551625000313,fall,left,5.0,591.3777133330004,,,,
stim_set/hard-82.png,none.png,unmotivated,3.75,stand,right,hard,,591.3782486659984,594.5829410000006,incorrect,3.154391999996733,fall,left,3.0,601.0141909160011,,,,
stim_set/hard-vcom=1-95.png,none.png,unmotivated,2.0,fall,left,hard,,601.0147468750001,604.1061465829989,incorrect,3.0392636659962586,stand,right,3.0,609.8579546660038,,,,
stim_set/easy-vcom=1-12.png,none.png,unmotivated,2.0,fall,left,easy,,609.8585882080007,611.8324746659999,correct,1.9228940419998253,fall,left,4.0,616.5367467910037,,,,
stim_set/hard-132.png,none.png,unmotivated,3.75,stand,right,hard,,616.5373218329987,617.9075066250008,incorrect,1.3225460000030578,fall,left,5.0,624.1745805000028,,,,
stim_set/hard-40.png,none.png,unmotivated,3.0,stand,right,hard,,624.1751107910022,626.9142419580021,incorrect,2.6840887919970555,fall,left,5.0,632.5521893330007,,,,
stim_set/hard-280.png,none.png,unmotivated,2.25,stand,right,hard,,632.5527365829985,634.5827312499969,incorrect,1.978597166998952,fall,left,5.0,639.5627140830038,,,,
stim_set/easy-vcom=4-126.png,none.png,unmotivated,2.5,fall,left,easy,,639.5632986249984,641.9809133750022,correct,2.36107125000126,fall,left,5.0,647.1965839999975,,,,
stim_set/hard-402.png,none.png,unmotivated,2.5,stand,right,hard,,647.1971714160027,649.0643338329974,incorrect,1.811496457994508,fall,left,5.0,654.4042217500028,,,,
stim_set/hard-vcom=4-139.png,none.png,unmotivated,4.0,fall,left,hard,,654.4047806660019,656.3392986660037,correct,1.8830509999970677,fall,left,5.0,663.3682283329981,663.3685888749968,,,
stim_set/easy-vcom=3-74.png,fall.png,cooperation,2.25,fall,left,easy,,,,,,,,,,,,,
stim_set/hard-566.png,stand.png,cooperation,3.25,stand,right,hard,,,,,,,,,,,,,
stim_set/hard-49.png,fall.png,cooperation,3.0,stand,right,hard,,,,,,,,,,,,,
stim_set/hard-vcom=3-110.png,fall.png,cooperation,2.0,fall,left,hard,,,,,,,,,,,,,
stim_set/hard-367.png,stand.png,cooperation,3.75,stand,right,hard,,,,,,,,,,,,,
stim_set/hard-vcom=2-100.png,stand.png,cooperation,4.0,fall,left,hard,,,,,,,,,,,,,
stim_set/hard-391.png,stand.png,cooperation,2.75,stand,right,hard,,,,,,,,,,,,,
stim_set/hard-600.png,stand.png,cooperation,3.0,stand,right,hard,,,,,,,,,,,,,
stim_set/easy-vcom=1-87.png,fall.png,cooperation,2.5,fall,left,easy,,,,,,,,,,,,,
stim_set/hard-492.png,stand.png,cooperation,2.25,stand,right,hard,,,,,,,,,,,,,
stim_set/hard-vcom=4-147.png,stand.png,cooperation,3.25,fall,left,hard,,,,,,,,,,,,,
stim_set/hard-vcom=1-136.png,stand.png,cooperation,2.75,fall,left,hard,,,,,,,,,,,,,
stim_set/hard-vcom=1-130.png,fall.png,cooperation,2.5,fall,left,hard,,,,,,,,,,,,,
stim_set/easy-vcom=2-20.png,fall.png,cooperation,4.0,fall,left,easy,,,,,,,,,,,,,
stim_set/hard-177.png,stand.png,cooperation,2.0,stand,right,hard,,,,,,,,,,,,,
stim_set/hard-78.png,stand.png,cooperation,2.25,stand,right,hard,,,,,,,,,,,,,
stim_set/hard-564.png,fall.png,cooperation,2.25,stand,right,hard,,,,,,,,,,,,,
stim_set/hard-402.png,stand.png,cooperation,3.75,stand,right,hard,,,,,,,,,,,,,
stim_set/easy-vcom=2-147.png,stand.png,cooperation,3.0,fall,left,easy,,,,,,,,,,,,,
stim_set/easy-538.png,fall.png,cooperation,2.5,stand,right,easy,,,,,,,,,,,,,
stim_set/hard-345.png,stand.png,cooperation,2.25,stand,right,hard,,,,,,,,,,,,,
stim_set/hard-244.png,fall.png,cooperation,2.5,stand,right,hard,,,,,,,,,,,,,
stim_set/hard-2.png,fall.png,cooperation,3.25,stand,right,hard,,,,,,,,,,,,,
stim_set/easy-vcom=1-73.png,fall.png,cooperation,2.5,fall,left,easy,,,,,,,,,,,,,
stim_set/hard-182.png,stand.png,cooperation,2.75,stand,right,hard,,,,,,,,,,,,,
stim_set/easy-13.png,fall.png,cooperation,3.25,stand,right,easy,,,,,,,,,,,,,
stim_set/hard-vcom=1-3.png,fall.png,cooperation,2.25,fall,left,hard,,,,,,,,,,,,,
stim_set/easy-344.png,fall.png,cooperation,2.75,stand,right,easy,,,,,,,,,,,,,
stim_set/hard-vcom=4-80.png,stand.png,cooperation,4.0,fall,left,hard,,,,,,,,,,,,,
stim_set/hard-vcom=2-137.png,fall.png,cooperation,2.25,fall,left,hard,,,,,,,,,,,,,
stim_set/hard-vcom=2-147.png,fall.png,cooperation,2.5,fall,left,hard,,,,,,,,,,,,,
stim_set/hard-382.png,fall.png,cooperation,3.75,stand,right,hard,,,,,,,,,,,,,
stim_set/hard-441.png,fall.png,cooperation,2.0,stand,right,hard,,,,,,,,,,,,,
stim_set/hard-570.png,fall.png,cooperation,2.0,stand,right,hard,,,,,,,,,,,,,
stim_set/easy-vcom=2-3.png,stand.png,cooperation,3.75,fall,left,easy,,,,,,,,,,,,,
stim_set/easy-280.png,fall.png,cooperation,3.0,stand,right,easy,,,,,,,,,,,,,
stim_set/easy-vcom=3-38.png,stand.png,cooperation,2.25,fall,left,easy,,,,,,,,,,,,,
stim_set/hard-vcom=1-95.png,fall.png,cooperation,2.5,fall,left,hard,,,,,,,,,,,,,
stim_set/hard-369.png,fall.png,cooperation,2.5,stand,right,hard,,,,,,,,,,,,,
stim_set/hard-vcom=1-50.png,stand.png,cooperation,4.0,fall,left,hard,,,,,,,,,,,,,
stim_set/hard-321.png,fall.png,cooperation,2.25,stand,right,hard,,,,,,,,,,,,,
stim_set/easy-vcom=3-142.png,fall.png,cooperation,3.25,fall,left,easy,,,,,,,,,,,,,
stim_set/hard-316.png,fall.png,cooperation,2.5,stand,right,hard,,,,,,,,,,,,,
stim_set/hard-vcom=2-20.png,stand.png,cooperation,2.0,fall,left,hard,,,,,,,,,,,,,
stim_set/easy-164.png,fall.png,cooperation,3.75,stand,right,easy,,,,,,,,,,,,,
stim_set/easy-vcom=4-69.png,stand.png,cooperation,4.0,fall,left,easy,,,,,,,,,,,,,
stim_set/hard-334.png,stand.png,cooperation,2.75,stand,right,hard,,,,,,,,,,,,,
stim_set/hard-132.png,stand.png,cooperation,3.0,stand,right,hard,,,,,,,,,,,,,
stim_set/easy-77.png,fall.png,cooperation,2.5,stand,right,easy,,,,,,,,,,,,,
stim_set/easy-vcom=1-12.png,stand.png,cooperation,2.25,fall,left,easy,,,,,,,,,,,,,
stim_set/hard-214.png,stand.png,cooperation,3.25,stand,right,hard,,,,,,,,,,,,,
stim_set/hard-vcom=4-139.png,stand.png,cooperation,2.75,fall,left,hard,,,,,,,,,,,,,
stim_set/easy-vcom=4-126.png,fall.png,cooperation,2.5,fall,left,easy,,,,,,,,,,,,,
stim_set/hard-vcom=3-142.png,fall.png,cooperation,4.0,fall,left,hard,,,,,,,,,,,,,
stim_set/hard-vcom=4-75.png,fall.png,cooperation,2.0,fall,left,hard,,,,,,,,,,,,,
stim_set/hard-vcom=4-142.png,stand.png,cooperation,2.25,fall,left,hard,,,,,,,,,,,,,
stim_set/hard-549.png,stand.png,cooperation,2.25,stand,right,hard,,,,,,,,,,,,,
stim_set/hard-vcom=3-145.png,stand.png,cooperation,3.75,fall,left,hard,,,,,,,,,,,,,
stim_set/easy-vcom=3-15.png,stand.png,cooperation,3.0,fall,left,easy,,,,,,,,,,,,,
stim_set/hard-vcom=1-30.png,fall.png,cooperation,2.5,fall,left,hard,,,,,,,,,,,,,
stim_set/hard-vcom=4-92.png,stand.png,cooperation,2.25,fall,left,hard,,,,,,,,,,,,,
stim_set/hard-21.png,stand.png,cooperation,2.5,stand,right,hard,,,,,,,,,,,,,
stim_set/hard-280.png,stand.png,cooperation,3.25,stand,right,hard,,,,,,,,,,,,,
stim_set/hard-vcom=2-110.png,fall.png,cooperation,2.5,fall,left,hard,,,,,,,,,,,,,
stim_set/hard-vcom=3-7.png,fall.png,cooperation,2.75,fall,left,hard,,,,,,,,,,,,,
stim_set/hard-vcom=3-34.png,stand.png,cooperation,3.25,fall,left,hard,,,,,,,,,,,,,
stim_set/easy-vcom=4-19.png,stand.png,cooperation,2.25,fall,left,easy,,,,,,,,,,,,,
stim_set/hard-7.png,stand.png,cooperation,2.75,stand,right,hard,,,,,,,,,,,,,
stim_set/easy-590.png,fall.png,cooperation,4.0,stand,right,easy,,,,,,,,,,,,,
stim_set/hard-82.png,stand.png,cooperation,2.25,stand,right,hard,,,,,,,,,,,,,
stim_set/hard-vcom=4-23.png,fall.png,cooperation,3.0,fall,left,hard,,,,,,,,,,,,,
stim_set/hard-91.png,fall.png,cooperation,3.75,stand,right,hard,,,,,,,,,,,,,
stim_set/hard-599.png,fall.png,cooperation,2.0,stand,right,hard,,,,,,,,,,,,,
stim_set/easy-411.png,stand.png,cooperation,2.0,stand,right,easy,,,,,,,,,,,,,
stim_set/easy-vcom=1-145.png,stand.png,cooperation,3.75,fall,left,easy,,,,,,,,,,,,,
stim_set/hard-40.png,stand.png,cooperation,3.0,stand,right,hard,,,,,,,,,,,,,
stim_set/hard-vcom=2-16.png,stand.png,cooperation,2.25,fall,left,hard,,,,,,,,,,,,,
stim_set/hard-14.png,fall.png,cooperation,2.5,stand,right,hard,,,,,,,,,,,,,
stim_set/hard-vcom=3-82.png,fall.png,cooperation,2.5,fall,left,hard,,,,,,,,,,,,,
stim_set/easy-vcom=2-94.png,stand.png,cooperation,4.0,fall,left,easy,,,,,,,,,,,,,
stim_set/easy-vcom=3-74.png,fall.png,competition,2.25,fall,left,easy,0.00015345799329224974,0.0007602080004289746,8.080659582999942,correct,3.033595291999518,fall,left,4,14.166674666994368,,,,1.0135277079971274
stim_set/hard-vcom=1-136.png,fall.png,competition,3.25,fall,left,hard,,14.167257832996256,22.313690791997942,correct,3.108085083003971,fall,left,4,29.253948749996198,,,,15.17735479199473
stim_set/hard-369.png,fall.png,competition,3.0,stand,right,hard,,29.25449399999343,35.872434082994005,correct,1.5839831670018611,stand,right,4,41.77107708299445,,,,30.265483207993384
stim_set/hard-vcom=2-147.png,stand.png,competition,2.0,fall,left,hard,,41.771613249999064,49.95786554199731,correct,3.1559871249992284,fall,left,4,55.62868916699517,,,,42.782501999994565
stim_set/hard-vcom=2-20.png,stand.png,competition,3.75,fall,left,hard,,55.62944920799782,62.980661749999854,correct,2.307790250000835,fall,left,4,70.09902424999746,,,,56.64018649999343
stim_set/easy-vcom=1-73.png,fall.png,competition,4.0,fall,left,easy,,70.09976033299608,78.65720966699882,incorrect,3.5288034999975935,stand,right,4,86.6598575829994,,,,71.109985916999
stim_set/hard-132.png,fall.png,competition,2.75,stand,right,hard,,86.66047566699854,93.59918283299339,incorrect,1.9031926249954267,fall,left,3,99.14549962499586,,,,87.67117070799577
stim_set/easy-vcom=2-20.png,stand.png,competition,3.0,fall,left,easy,,99.14605129199481,106.29721633299778,correct,2.1114363329979824,fall,left,4,112.39506354199693,,,,100.15658929199708
stim_set/hard-280.png,fall.png,competition,2.5,stand,right,hard,,112.39561745799438,119.74739079199935,incorrect,2.3074707909981953,fall,left,3,125.2789340829986,,,,113.406365291994
stim_set/hard-600.png,fall.png,competition,2.25,stand,right,hard,,125.27946483299456,133.1471675829962,incorrect,2.8336003749936935,fall,left,5,139.17420687499543,,,,126.28960591699433
stim_set/hard-334.png,stand.png,competition,3.25,stand,right,hard,,139.17482424999616,146.82241304199852,incorrect,2.6088662920010393,fall,left,3,152.54095091699855,,,,140.18571845800034
stim_set/easy-vcom=1-12.png,stand.png,competition,2.75,fall,left,easy,,152.54165820799972,162.5992444999938,incorrect,,,,,168.16928795799322,,,,153.5524447919961
stim_set/easy-vcom=2-147.png,fall.png,competition,2.5,fall,left,easy,,168.1698187919974,175.00776499999483,correct,1.8012619169967365,fall,left,5,180.81600833300035,,,,169.17959187499946
stim_set/easy-590.png,stand.png,competition,4.0,stand,right,easy,,180.81653899999947,187.40751145799732,correct,1.5512781249999534,stand,right,3,194.52269949999754,,,,181.82706499999767
stim_set/hard-91.png,fall.png,competition,2.0,stand,right,hard,,194.52328091699746,201.22242279199418,incorrect,1.6576302089961246,fall,left,5,206.05064470799698,,,,195.53361208299611
stim_set/hard-vcom=1-95.png,stand.png,competition,2.25,fall,left,hard,,206.05118666699855,213.05587554199883,incorrect,1.9649512920004781,stand,right,4,219.0702135419997,,,,207.062013499999
stim_set/hard-402.png,stand.png,competition,2.25,stand,right,hard,,219.07075633299974,227.49717295799928,incorrect,3.384170000004815,fall,left,5,233.1658364169998,,,,220.0810586669977
stim_set/hard-49.png,fall.png,competition,3.75,stand,right,hard,,233.16652699999395,240.44745562499884,incorrect,2.236132958998496,fall,left,3,247.12882883299608,,,,234.17668499999854
stim_set/easy-vcom=4-69.png,stand.png,competition,3.0,fall,left,easy,,247.12939979200019,255.68096899999364,correct,3.508224915996834,fall,left,3,262.660454249999,,,,248.14020545799576
stim_set/easy-vcom=3-38.png,stand.png,competition,2.5,fall,left,easy,,262.6612312500001,272.17413345800014,incorrect,4.4735838750057155,stand,right,3,278.10467841699574,,,,263.67188666699803
stim_set/hard-vcom=3-7.png,fall.png,competition,2.25,fall,left,hard,,278.1052098329965,285.08079966699734,correct,1.9356235829982325,fall,left,5,290.5588839169941,,,,279.115640582997
stim_set/easy-vcom=3-142.png,stand.png,competition,2.5,fall,left,easy,,290.55942908299767,298.0642850419972,incorrect,2.4629287909992854,stand,right,4,304.2243804999962,,,,291.56986704199517
stim_set/hard-345.png,stand.png,competition,3.25,stand,right,hard,,304.2249429999938,310.9822660829959,correct,1.7215861250006128,stand,right,5,317.48667804199795,,,,305.2356627919944
stim_set/easy-164.png,stand.png,competition,2.5,stand,right,easy,,317.48721145799936,324.0891808749948,correct,1.5578537920009694,stand,right,5,329.55191499999637,,,,318.49772287499945
stim_set/hard-2.png,fall.png,competition,2.75,stand,right,hard,,329.55246537499625,338.5157552919991,correct,3.9259636670030886,stand,right,4,344.71523666699795,,,,330.563081332999
stim_set/hard-vcom=4-75.png,stand.png,competition,3.25,fall,left,hard,,344.7157935829964,351.3476139579943,correct,1.5884269579983084,fall,left,5,357.62250154199864,,,,345.7266622919997
stim_set/hard-40.png,stand.png,competition,2.25,stand,right,hard,,357.6230725829955,364.2576932919983,incorrect,1.596534457996313,fall,left,5,370.0542349169991,,,,358.6333075829971
stim_set/hard-vcom=2-100.png,fall.png,competition,2.75,fall,left,hard,,370.05481383299775,376.5161799579946,correct,1.425585584001965,fall,left,5,381.977035291995,,,,371.06506616699335
stim_set/hard-vcom=3-145.png,stand.png,competition,4.0,fall,left,hard,,381.97762208299537,389.4976104169982,correct,2.48577504199784,fall,left,5,397.3814866249959,,,,382.98796512499393
stim_set/hard-82.png,fall.png,competition,2.25,stand,right,hard,,397.38211087499803,405.4247583329998,incorrect,3.0039604580015293,fall,left,3,410.96640920799837,,,,398.39292391699564
stim_set/easy-vcom=2-3.png,fall.png,competition,2.5,fall,left,easy,,410.9669985829969,418.44769766699756,correct,2.43865345800441,fall,left,4,424.4006412919989,,,,411.9771817919973
stim_set/hard-566.png,fall.png,competition,3.75,stand,right,hard,,424.4011924169972,432.0660368749959,incorrect,2.6250163329968927,fall,left,4,439.3947279999993,,,,425.411410541994
stim_set/hard-214.png,stand.png,competition,2.0,stand,right,hard,,439.39526287499757,446.3910962919981,incorrect,1.9540094580006553,fall,left,4,451.41902695799945,,,,440.40606154199486
stim_set/easy-vcom=4-19.png,fall.png,competition,2.0,fall,left,easy,,451.419592541999,460.7643851249959,incorrect,4.301861583000573,stand,right,3,465.7149619999982,,,,452.429722791996
stim_set/easy-280.png,fall.png,competition,3.75,stand,right,easy,,465.715623666998,473.50581195799896,correct,2.751062457995431,stand,right,3,480.66681249999965,,,,466.72595962499327
stim_set/hard-321.png,stand.png,competition,3.0,stand,right,hard,,480.66736766699614,487.1746546249997,incorrect,1.4726810840002145,fall,left,5,494.1414887919964,,,,481.67832908299897
stim_set/hard-182.png,stand.png,competition,2.25,stand,right,hard,,494.1420274169941,501.4144277079977,incorrect,2.238514999997278,fall,left,5,507.03228383299574,,,,495.1526325419982
stim_set/hard-vcom=3-34.png,stand.png,competition,2.5,fall,left,hard,,507.03289316699374,513.4245621249938,correct,1.3512618749955436,fall,left,5,518.9112960829952,,,,508.04349420799554
stim_set/easy-538.png,fall.png,competition,2.5,stand,right,easy,,518.9118418329963,525.3394530829974,correct,1.38956041700294,stand,right,5,530.7193852079945,,,,519.9220088749935
stim_set/hard-244.png,stand.png,competition,4.0,stand,right,hard,,530.7200895829956,539.0580137919969,incorrect,3.2985751669984893,fall,left,5,546.211469582995,546.2118054579987,,,531.7303760419964
stim_set/easy-13.png,stand.png,competition,2.25,stand,right,easy,564.2906384999951,564.2914434579943,571.2228733329976,correct,1.8867653749985038,stand,right,5,576.4939126249956,,,,565.302806707994
stim_set/hard-vcom=4-23.png,stand.png,competition,3.25,fall,left,hard,,576.4945073329945,583.532265582995,correct,2.003902750002453,fall,left,4,594.7924532079996,,,,577.5045747080003
stim_set/hard-vcom=4-80.png,fall.png,competition,2.5,fall,left,hard,,594.7929865419937,601.4477203329952,correct,1.6105575830006273,fall,left,5,606.4074429999964,,,,595.8038576249965
stim_set/easy-77.png,stand.png,competition,2.0,stand,right,easy,,606.4079850419948,613.956175583,correct,2.508381332998397,stand,right,5,619.5009890000001,,,,607.4187183749964
stim_set/hard-177.png,fall.png,competition,3.75,stand,right,hard,,619.5015560419997,625.9077039169933,incorrect,1.3779059169974062,fall,left,5,632.6892165829995,,,,620.5116492499947
stim_set/easy-vcom=2-94.png,fall.png,competition,4.0,fall,left,easy,,632.6897832079994,641.3745555419955,correct,3.650496292000753,fall,left,5,648.2115126249992,,,,633.6997993329933
stim_set/hard-vcom=1-30.png,fall.png,competition,2.75,fall,left,hard,,648.2120907079952,655.4243596669985,correct,2.1792239580026944,fall,left,5,661.2911315419988,,,,649.222445499996
stim_set/easy-vcom=3-15.png,fall.png,competition,3.0,fall,left,easy,,661.2918019169956,669.4644967079948,correct,3.133187542000087,fall,left,4,675.2989925000002,,,,662.3019935419943
stim_set/hard-vcom=1-3.png,stand.png,competition,2.5,fall,left,hard,,675.2995522499987,682.0830453329982,correct,1.7475222499997471,fall,left,5,689.6763233749953,,,,676.309835
stim_set/easy-411.png,stand.png,competition,2.25,stand,right,easy,,689.6768518329991,696.2562472919963,correct,1.5353259580006124,stand,right,4,701.8470113749936,,,,690.6876387919983
stim_set/easy-344.png,fall.png,competition,3.25,stand,right,easy,,701.8475767079944,709.433457082996,correct,2.5510307910008123,stand,right,4,715.8062531670002,,,,702.858072957999
stim_set/hard-vcom=3-142.png,fall.png,competition,2.75,fall,left,hard,,715.8068651249996,723.6896166669976,correct,2.8384002090024296,fall,left,5,729.9786750829953,,,,716.8175719169958
stim_set/hard-vcom=3-110.png,stand.png,competition,2.5,fall,left,hard,,729.9792240829993,736.422886458,correct,1.4092908339953283,fall,left,4,742.1211817919975,,,,730.9898824999982
stim_set/hard-441.png,stand.png,competition,4.0,stand,right,hard,,742.1217147079951,750.4980241669982,correct,3.338546334001876,stand,right,3,757.4841239169982,,,,743.1321679579996
stim_set/hard-570.png,stand.png,competition,2.0,stand,right,hard,,757.4846865419968,764.4249742079992,incorrect,1.899986541000544,fall,left,5,769.2841906670001,,,,758.4954641249933
stim_set/hard-492.png,fall.png,competition,2.25,stand,right,hard,,769.2847589999947,777.1396886250004,incorrect,2.814074249996338,fall,left,5,782.1898742079939,,,,770.2948679999972
stim_set/hard-vcom=3-82.png,stand.png,competition,2.25,fall,left,hard,,782.1903872080002,788.5479770419988,correct,1.3148836670006858,fall,left,5,793.4861374579996,,,,783.2009320829966
stim_set/hard-vcom=1-50.png,fall.png,competition,3.75,fall,left,hard,,793.4868194999945,799.9143864169964,correct,1.3842050419989391,fall,left,4,806.6021475829984,,,,794.4971895829949
stim_set/hard-vcom=2-137.png,stand.png,competition,3.0,fall,left,hard,,806.6027524999954,813.2981061249957,correct,1.6567702500033192,fall,left,4,819.5416322919991,,,,807.6131424579944
stim_set/hard-vcom=4-147.png,stand.png,competition,2.5,fall,left,hard,,819.5422024999934,826.2229621669976,correct,1.6366147499938961,fall,left,5,831.9530202079986,,,,820.5527199169956
stim_set/hard-599.png,stand.png,competition,2.25,stand,right,hard,,831.9535790419977,840.3978095419952,incorrect,3.4106607919966336,fall,left,4,845.6942500829973,,,,832.9641330419981
stim_set/hard-vcom=4-139.png,fall.png,competition,2.5,fall,left,hard,,845.6948085419936,852.122884999997,correct,1.389434374999837,fall,left,4,857.8490102919968,,,,846.704843624997
stim_set/hard-vcom=1-130.png,fall.png,competition,3.25,fall,left,hard,,857.8495657499952,866.6732212499992,incorrect,3.784097457995813,stand,right,3,873.0233290420001,,,,858.8600677079958
stim_set/easy-vcom=1-87.png,stand.png,competition,2.5,fall,left,easy,,873.0239213749956,880.799986041995,incorrect,2.7372850000028848,stand,right,3,886.2238622919976,,,,874.034673999995
stim_set/hard-549.png,stand.png,competition,2.75,stand,right,hard,,886.2243959999978,894.1062146249969,incorrect,2.840642500006652,fall,left,5,900.0920212919955,,,,887.2349709579939
stim_set/hard-391.png,stand.png,competition,3.25,stand,right,hard,,900.0926499169946,906.3981188749967,incorrect,1.2657042499995441,fall,left,5,912.5979944999999,,,,901.103623707997
stim_set/hard-vcom=2-110.png,fall.png,competition,2.25,fall,left,hard,,912.5985551249978,919.4830463749968,correct,1.8514489579974907,fall,left,5,924.5981107499974,,,,913.6087201249975
stim_set/hard-vcom=4-142.png,fall.png,competition,2.75,fall,left,hard,,924.5985934579949,931.2732402080001,correct,1.634115084001678,fall,left,5,936.5140284999943,,,,925.6086722499967
stim_set/hard-564.png,stand.png,competition,4.0,stand,right,hard,,936.5146648329974,946.2898755419956,incorrect,4.731951458998083,fall,left,5,952.9635857499961,,,,937.5250101669953
stim_set/hard-vcom=2-16.png,stand.png,competition,2.25,fall,left,hard,,952.9642462499978,959.9085822499983,correct,1.9033160830003908,fall,left,3,965.4795977079993,,,,953.9752936669975
stim_set/easy-vcom=4-126.png,fall.png,competition,3.0,fall,left,easy,,965.4801658750002,973.5415020419969,correct,3.0217437089959276,fall,left,3,979.9989031669975,,,,966.4905754169959
stim_set/hard-vcom=4-92.png,fall.png,competition,3.75,fall,left,hard,,979.9994473329934,987.8066292919975,correct,2.7635367080001743,fall,left,5,996.6599049579963,,,,981.009725207994
stim_set/hard-7.png,fall.png,competition,2.0,stand,right,hard,,996.6604638329954,1003.5149390419974,incorrect,1.8091126660001464,fall,left,3,1009.3249437919949,,,,997.6712085830004
stim_set/hard-382.png,fall.png,competition,2.0,stand,right,hard,,1009.3256829579987,1015.5733830419995,incorrect,1.2147177500010002,fall,left,4,1022.3976279169947,,,,1010.3357832499969
stim_set/hard-316.png,stand.png,competition,3.75,stand,right,hard,,1022.3981649169946,1029.148422457998,incorrect,1.7107919159971061,fall,left,3,1035.6819164579938,,,,1023.4088642499992
stim_set/hard-367.png,fall.png,competition,3.0,stand,right,hard,,1035.6824658749974,1042.0066510420002,incorrect,1.2847773329995107,fall,left,5,1048.2430411669993,,,,1036.6926382919992
stim_set/hard-21.png,stand.png,competition,2.25,stand,right,hard,,1048.2436358329942,1057.373590874995,incorrect,4.089395500006503,fall,left,5,1063.0554491669973,,,,1049.2547119579976
stim_set/hard-78.png,fall.png,competition,2.5,stand,right,hard,,1063.0563503749945,1069.6982179579936,incorrect,1.5985110830006306,fall,left,3,1075.482096707994,,,,1064.0676759579947
stim_set/easy-vcom=1-145.png,stand.png,competition,2.5,fall,left,easy,,1075.4826289169941,1082.1400145419975,correct,1.6150167919986416,fall,left,5,1087.6722509169995,,,,1076.493479249999
stim_set/hard-14.png,fall.png,competition,4.0,stand,right,hard,,1087.672816416998,1094.564956874994,incorrect,1.8588650829988183,fall,left,5,1101.6841559169989,1101.6844948750004,,,1088.6829121249975
stim_set/hard-410.png,stand.png,cooperation,3.75,stand,right,hard,,,,,,,,,,,,,
stim_set/hard-188.png,stand.png,competition,4.0,stand,right,hard,2.916996891144663e-06,0.00216520899994066,7.0532349169952795,incorrect,2.036305292000179,fall,left,5,15.803501583999605,15.804014208995795,,,1.0158969999974943
