towers,bet,condition,iti,corr_choice,corr_key,difficulty,block_start,trial_start,stim_on,acc,rt,part_choice,part_key,confidence,trial_end,block_end,updated_score
stim_set/hard-600.png,none.png,unmotivated,2.5,stand,right,hard,4.0000013541430235e-06,0.002813750001223525,1.4251694160011539,incorrect,1.3774915000012697,fall,left,4,7.2802050830014196,,225.0
stim_set/hard-vcom=4-147.png,none.png,unmotivated,2.25,fall,left,hard,,7.281768583001394,10.023756458000207,correct,2.6853464169998915,fall,left,3,15.669482291001259,,
stim_set/easy-vcom=1-12.png,none.png,unmotivated,2.0,fall,left,easy,,15.670032250000077,17.49074875000042,correct,1.7642888749996928,fall,left,4,23.25156670800061,,
stim_set/hard-492.png,none.png,unmotivated,2.0,stand,right,hard,,23.252210291000665,24.99058150000019,incorrect,1.6833503329999076,fall,left,4,30.354954250000446,,
stim_set/hard-vcom=2-137.png,none.png,unmotivated,3.0,fall,left,hard,,30.355536750001193,32.69071475000055,correct,2.284497333001127,fall,left,3,40.21103754100113,,
stim_set/easy-vcom=2-147.png,none.png,unmotivated,3.25,fall,left,easy,,40.2115750410012,42.258848416000546,correct,1.9984098330005509,fall,left,4,49.117059625001275,,
stim_set/easy-vcom=1-73.png,none.png,unmotivated,2.5,fall,left,easy,,49.117608958000346,51.0588972910009,correct,1.899616499998956,fall,left,3,56.26259129100072,,
stim_set/easy-344.png,none.png,unmotivated,4.0,stand,right,easy,,56.26315054100087,59.33409458300048,correct,3.024348082999495,stand,right,2,67.6434657080008,,
stim_set/easy-vcom=4-126.png,none.png,unmotivated,2.5,fall,left,easy,,67.6440951250006,70.76574237500063,incorrect,3.0652375829995435,stand,right,3,78.01122904100157,,
stim_set/hard-vcom=2-147.png,none.png,unmotivated,2.5,fall,left,hard,,78.01178100000106,79.24071812500006,correct,1.1817962919994898,fall,left,4,85.74276925000049,,
stim_set/hard-132.png,none.png,unmotivated,3.75,stand,right,hard,,85.74339450000116,87.11726354100028,incorrect,1.3258019169988984,fall,left,4,93.95980216600037,,
stim_set/hard-vcom=3-7.png,none.png,unmotivated,2.75,fall,left,hard,,93.96053912500065,95.57420533300137,correct,1.5615637910013902,fall,left,5,101.80901025000094,,
stim_set/hard-391.png,none.png,unmotivated,2.25,stand,right,hard,,101.80962120800177,103.33467604100042,incorrect,1.4769681249999849,fall,left,4,109.08502825000141,,
stim_set/hard-402.png,none.png,unmotivated,2.5,stand,right,hard,,109.08576391600036,110.6739886660016,incorrect,1.5330966250003257,fall,left,5,115.83022695800173,,
stim_set/easy-13.png,none.png,unmotivated,2.5,stand,right,easy,,115.83087595800134,117.58417425000152,correct,1.7015821659988433,stand,right,4,124.89518187500107,,
stim_set/hard-367.png,none.png,unmotivated,2.5,stand,right,hard,,124.89572916600082,126.95754491600019,incorrect,2.0088742919997458,fall,left,3,132.48506462500154,,
stim_set/easy-vcom=2-20.png,none.png,unmotivated,2.25,fall,left,easy,,132.48561179100034,134.34284095800103,incorrect,1.8101811670003372,stand,right,1,141.1434837910001,,
stim_set/hard-316.png,none.png,unmotivated,2.0,stand,right,hard,,141.14402754100047,142.50754879100168,incorrect,1.3114370829989639,fall,left,3,148.97904720800034,,
stim_set/hard-82.png,none.png,unmotivated,3.75,stand,right,hard,,148.97963179100043,151.08417904100133,incorrect,2.0546745830015425,fall,left,3,158.6412130410008,,
stim_set/hard-564.png,none.png,unmotivated,3.75,stand,right,hard,,158.64184037500127,160.0078110830018,incorrect,1.3102727500008768,fall,left,5,166.3443515830004,,
stim_set/hard-vcom=3-142.png,none.png,unmotivated,3.25,fall,left,hard,,166.34489595800005,169.31596341600016,correct,2.914632875001189,fall,left,3,176.76032733300053,,
stim_set/hard-566.png,none.png,unmotivated,3.75,stand,right,hard,,176.76089379100085,178.33270900000025,incorrect,1.5150040410007932,fall,left,4,184.65648362500178,,
stim_set/hard-280.png,none.png,unmotivated,2.25,stand,right,hard,,184.6570421660017,186.62430512500032,incorrect,1.9112365420005517,fall,left,4,191.50797458300076,,
stim_set/hard-vcom=3-145.png,none.png,unmotivated,2.75,fall,left,hard,,191.5085248330015,195.63272895800037,incorrect,4.0781000000006316,stand,right,2,200.90361762500106,,
stim_set/easy-vcom=2-94.png,none.png,unmotivated,2.75,fall,left,easy,,200.90413854100007,205.51598145800017,correct,4.560587666999709,fall,left,3,210.76055158300005,,
stim_set/hard-vcom=4-80.png,none.png,unmotivated,3.75,fall,left,hard,,210.76126683300026,212.15775462500096,correct,1.3400695420004922,fall,left,4,218.4803430410011,,
stim_set/hard-599.png,none.png,unmotivated,3.0,stand,right,hard,,218.48096141600035,222.41603304100136,incorrect,3.889567583999451,fall,left,3,227.94601912500002,,
stim_set/hard-182.png,none.png,unmotivated,4.0,stand,right,hard,,227.9465714580001,229.09267120800178,incorrect,1.1047153340005025,fall,left,5,236.35535450000134,,
stim_set/hard-570.png,none.png,unmotivated,2.25,stand,right,hard,,236.35589170800085,237.9599360000011,incorrect,1.551638875000208,fall,left,5,243.37238983300085,,
stim_set/easy-vcom=4-69.png,none.png,unmotivated,2.25,fall,left,easy,,243.37295033300143,247.36605079100082,correct,3.937922167000579,fall,left,2,252.23602591600138,,
stim_set/easy-280.png,none.png,unmotivated,3.0,stand,right,easy,,252.23657275000005,253.4745177500008,correct,1.185923749999347,stand,right,4,259.3700779580013,,
stim_set/hard-2.png,none.png,unmotivated,2.75,stand,right,hard,,259.3706405000012,263.94275783300145,correct,4.522572208999918,stand,right,2,269.23219750000135,,
stim_set/hard-vcom=2-100.png,none.png,unmotivated,3.25,fall,left,hard,,269.23274137500084,271.55945529100063,correct,2.2776505410001846,fall,left,3,278.89465445800124,,
stim_set/hard-177.png,none.png,unmotivated,2.0,stand,right,hard,,278.8953867910004,280.14955312500024,incorrect,1.2076855420000356,fall,left,5,284.8985056250003,,
stim_set/hard-244.png,none.png,unmotivated,3.25,stand,right,hard,,284.89905595800155,286.9510892080016,incorrect,2.0002735840007517,fall,left,3,293.8292285000007,,
stim_set/easy-538.png,none.png,unmotivated,2.5,stand,right,easy,,293.8297947080009,295.1662376250006,correct,1.286331125000288,stand,right,4,300.8300070000005,,
stim_set/easy-vcom=3-15.png,none.png,unmotivated,2.25,fall,left,easy,,300.8305582080011,302.99132658300005,correct,2.1078346670001338,fall,left,3,308.98382933300127,,
stim_set/easy-vcom=1-145.png,none.png,unmotivated,3.75,fall,left,easy,,308.98437600000034,310.4845900830005,correct,1.4509176669998851,fall,left,3,318.44572600000174,,
stim_set/hard-vcom=4-92.png,none.png,unmotivated,2.75,fall,left,hard,,318.4462747080015,319.95176037500096,correct,1.4533255839996855,fall,left,5,325.2967277910011,,
stim_set/easy-vcom=1-87.png,none.png,unmotivated,3.0,fall,left,easy,,325.2972429580004,327.06625525000163,correct,1.7141686659997504,fall,left,4,332.91498500000125,332.91533662500115,
stim_set/easy-vcom=3-142.png,none.png,unmotivated,2.75,fall,left,easy,341.36977520800065,341.37062145800155,344.49276658300005,correct,3.0728654590002407,fall,left,3,351.16942270800064,,
stim_set/easy-590.png,none.png,unmotivated,2.5,stand,right,easy,,351.16997575000096,352.4263385000013,correct,1.2047364999998535,stand,right,4,357.63894125000115,,
stim_set/hard-78.png,none.png,unmotivated,2.25,stand,right,hard,,357.6395234160009,359.1436882500002,incorrect,1.4539343749984255,fall,left,3,365.8368707080008,,
stim_set/hard-214.png,none.png,unmotivated,3.25,stand,right,hard,,365.83742054100003,366.98299754100117,incorrect,1.0894872500011843,fall,left,4,374.79709300000104,,
stim_set/hard-49.png,none.png,unmotivated,2.25,stand,right,hard,,374.7976576660003,375.8997341250015,incorrect,1.0445057920005638,fall,left,4,383.5101547500017,,
stim_set/hard-441.png,none.png,unmotivated,2.5,stand,right,hard,,383.510658833,388.57474991600066,incorrect,,,,,393.5243508750009,,
stim_set/hard-369.png,none.png,unmotivated,2.0,stand,right,hard,,393.52494204100003,394.88299783300135,incorrect,1.3121557920003397,fall,left,4,400.33978829100124,,
stim_set/hard-345.png,none.png,unmotivated,2.5,stand,right,hard,,400.3403541660009,403.2598052080011,correct,2.8726302909999504,stand,right,2,408.694411208,,
stim_set/easy-vcom=3-38.png,none.png,unmotivated,2.5,fall,left,easy,,408.6950987910004,410.716316166001,correct,1.965785207999943,fall,left,3,416.4548684580004,,
stim_set/hard-vcom=2-16.png,none.png,unmotivated,2.5,fall,left,hard,,416.4554465830006,418.2997716660011,correct,1.7878854169994156,fall,left,4,424.3927081660004,,
stim_set/easy-vcom=3-74.png,none.png,unmotivated,2.25,fall,left,easy,,424.3933025410006,426.51783783300016,correct,2.0738396249998914,fall,left,4,431.20393008300016,,
stim_set/easy-vcom=2-3.png,none.png,unmotivated,4.0,fall,left,easy,,431.20457616600106,433.54393558300035,correct,2.28903791599987,fall,left,3,440.1465595000009,,
stim_set/hard-vcom=4-75.png,none.png,unmotivated,2.5,fall,left,hard,,440.1473035000017,442.2259910410012,correct,2.028265500000998,fall,left,5,447.24699933300144,,
stim_set/hard-vcom=3-34.png,none.png,unmotivated,2.0,fall,left,hard,,447.2475490830002,448.56627887500144,correct,1.2623626250006055,fall,left,5,453.0849988750015,,
stim_set/easy-164.png,none.png,unmotivated,4.0,stand,right,easy,,453.0856591660013,455.83280716600166,incorrect,2.69027237499904,fall,left,3,462.71525554100117,,
stim_set/hard-382.png,none.png,unmotivated,2.75,stand,right,hard,,462.71587704100057,464.7850262910015,incorrect,2.0275364160006575,fall,left,4,471.93027687500035,,
stim_set/hard-vcom=1-130.png,none.png,unmotivated,2.25,fall,left,hard,,471.93090604100144,473.15118395800164,correct,1.1737612499982788,fall,left,4,477.83602158300164,,
stim_set/easy-411.png,none.png,unmotivated,4.0,stand,right,easy,,477.8365680830011,479.9747502910013,correct,2.082281667000643,stand,right,3,486.88268725000125,,
stim_set/hard-40.png,none.png,unmotivated,3.0,stand,right,hard,,486.88330875000065,488.52476362500056,incorrect,1.5860750829997414,fall,left,5,494.2347812910011,,
stim_set/hard-vcom=4-139.png,none.png,unmotivated,4.0,fall,left,hard,,494.23542483300116,496.60185812500094,correct,2.318662541998492,fall,left,3,502.7618899580011,,
stim_set/hard-vcom=1-30.png,none.png,unmotivated,3.75,fall,left,hard,,502.7624397080017,504.65818054100055,correct,1.7838757089994033,fall,left,5,510.8644794160009,,
stim_set/hard-vcom=3-82.png,none.png,unmotivated,2.25,fall,left,hard,,510.8650314160004,512.5830177500011,correct,1.6630649169983371,fall,left,4,518.0690972910015,,
stim_set/hard-321.png,none.png,unmotivated,2.25,stand,right,hard,,518.0697328750011,520.1580155830015,correct,2.0369595420015685,stand,right,1,526.869406916001,,
stim_set/hard-vcom=2-20.png,none.png,unmotivated,2.25,fall,left,hard,,526.8699853750004,528.8332497910014,correct,1.9075487079990125,fall,left,4,535.91998375,,
stim_set/hard-vcom=1-95.png,none.png,unmotivated,2.0,fall,left,hard,,535.9205061660014,540.7582132500011,correct,4.786043750000317,fall,left,2,545.3785987500014,,
stim_set/hard-vcom=4-23.png,none.png,unmotivated,2.5,fall,left,hard,,545.3791657500005,550.4415166250001,incorrect,,,,,554.8507070000014,,
stim_set/hard-334.png,none.png,unmotivated,2.0,stand,right,hard,,554.8513205000017,556.891504833,incorrect,1.9889579999999114,fall,left,4,564.0946826660002,,
stim_set/hard-14.png,none.png,unmotivated,3.25,stand,right,hard,,564.0951995830001,566.7247721660005,incorrect,2.5824844159997156,fall,left,3,572.4210172080002,,
stim_set/hard-vcom=1-136.png,none.png,unmotivated,2.5,fall,left,hard,,572.4215843330003,574.5330390830004,correct,2.059623584000292,fall,left,4,579.494197041,,
stim_set/hard-vcom=3-110.png,none.png,unmotivated,3.0,fall,left,hard,,579.4948495000008,581.1998281250017,correct,1.6590382499998668,fall,left,5,586.8190320000012,,
stim_set/hard-549.png,none.png,unmotivated,3.25,stand,right,hard,,586.819663833001,588.624760875,incorrect,1.7515320419988711,fall,left,4,594.4680764160003,,
stim_set/hard-vcom=1-3.png,none.png,unmotivated,2.75,fall,left,hard,,594.4686328750013,596.2081015830008,correct,1.6861364579999645,fall,left,5,601.5922453330004,,
stim_set/hard-vcom=2-110.png,none.png,unmotivated,3.0,fall,left,hard,,601.5927759580009,603.6179096250016,correct,1.9783308329988358,fall,left,4,609.0736726250016,,
stim_set/hard-7.png,none.png,unmotivated,2.25,stand,right,hard,,609.0743115410005,611.1164556660005,incorrect,1.9844092080002156,fall,left,3,615.8678367500015,,
stim_set/hard-21.png,none.png,unmotivated,4.0,stand,right,hard,,615.8684635830014,617.6830151250015,incorrect,1.7627647500012245,fall,left,4,624.3310237080004,,
stim_set/hard-vcom=4-142.png,none.png,unmotivated,4.0,fall,left,hard,,624.3315898750006,626.4662842080015,correct,2.081507791999684,fall,left,3,634.4040197080012,,
stim_set/hard-91.png,none.png,unmotivated,2.25,stand,right,hard,,634.4045671660006,636.466440958,incorrect,2.0071704579986545,fall,left,3,642.382216041,,
stim_set/easy-77.png,none.png,unmotivated,3.0,stand,right,easy,,642.3827730410012,644.2596322080008,correct,1.8297709170001326,stand,right,4,650.1390578330011,,
stim_set/easy-vcom=4-19.png,none.png,unmotivated,3.25,fall,left,easy,,650.1397399580001,653.1080098750008,incorrect,2.9121108330000425,stand,right,3,658.9806084580014,,
stim_set/hard-vcom=1-50.png,none.png,unmotivated,3.75,fall,left,hard,,658.9811987500016,660.1747070410001,correct,1.1370617079992371,fall,left,4,667.2338288330011,667.2341567080002,
stim_set/easy-vcom=2-20.png,stand.png,cooperation,4.0,fall,left,easy,,,,,,,,,,,
stim_set/hard-570.png,stand.png,cooperation,2.0,stand,right,hard,,,,,,,,,,,
stim_set/hard-vcom=3-110.png,stand.png,cooperation,2.0,fall,left,hard,,,,,,,,,,,
stim_set/hard-600.png,fall.png,cooperation,3.0,stand,right,hard,,,,,,,,,,,
stim_set/hard-244.png,stand.png,cooperation,2.5,stand,right,hard,,,,,,,,,,,
stim_set/easy-vcom=1-73.png,stand.png,cooperation,2.5,fall,left,easy,,,,,,,,,,,
stim_set/easy-vcom=3-15.png,fall.png,cooperation,3.0,fall,left,easy,,,,,,,,,,,
stim_set/hard-vcom=3-145.png,stand.png,cooperation,3.75,fall,left,hard,,,,,,,,,,,
stim_set/easy-vcom=3-74.png,fall.png,cooperation,2.25,fall,left,easy,,,,,,,,,,,
stim_set/easy-77.png,fall.png,cooperation,2.5,stand,right,easy,,,,,,,,,,,
stim_set/easy-538.png,stand.png,cooperation,2.5,stand,right,easy,,,,,,,,,,,
stim_set/hard-vcom=3-34.png,fall.png,cooperation,3.25,fall,left,hard,,,,,,,,,,,
stim_set/hard-vcom=4-139.png,stand.png,cooperation,2.75,fall,left,hard,,,,,,,,,,,
stim_set/easy-13.png,fall.png,cooperation,3.25,stand,right,easy,,,,,,,,,,,
stim_set/hard-280.png,stand.png,cooperation,3.25,stand,right,hard,,,,,,,,,,,
stim_set/hard-599.png,fall.png,cooperation,2.0,stand,right,hard,,,,,,,,,,,
stim_set/hard-402.png,fall.png,cooperation,3.75,stand,right,hard,,,,,,,,,,,
stim_set/easy-vcom=2-147.png,fall.png,cooperation,3.0,fall,left,easy,,,,,,,,,,,
stim_set/hard-2.png,stand.png,cooperation,3.25,stand,right,hard,,,,,,,,,,,
stim_set/hard-566.png,fall.png,cooperation,3.25,stand,right,hard,,,,,,,,,,,
stim_set/easy-590.png,fall.png,cooperation,4.0,stand,right,easy,,,,,,,,,,,
stim_set/easy-vcom=4-126.png,stand.png,cooperation,2.5,fall,left,easy,,,,,,,,,,,
stim_set/easy-vcom=2-94.png,stand.png,cooperation,4.0,fall,left,easy,,,,,,,,,,,
stim_set/hard-vcom=2-147.png,fall.png,cooperation,2.5,fall,left,hard,,,,,,,,,,,
stim_set/easy-411.png,stand.png,cooperation,2.0,stand,right,easy,,,,,,,,,,,
stim_set/hard-vcom=3-7.png,fall.png,cooperation,2.75,fall,left,hard,,,,,,,,,,,
stim_set/hard-14.png,fall.png,cooperation,2.5,stand,right,hard,,,,,,,,,,,
stim_set/hard-49.png,stand.png,cooperation,3.0,stand,right,hard,,,,,,,,,,,
stim_set/hard-82.png,fall.png,cooperation,2.25,stand,right,hard,,,,,,,,,,,
stim_set/hard-492.png,stand.png,cooperation,2.25,stand,right,hard,,,,,,,,,,,
stim_set/hard-345.png,stand.png,cooperation,2.25,stand,right,hard,,,,,,,,,,,
stim_set/hard-40.png,fall.png,cooperation,3.0,stand,right,hard,,,,,,,,,,,
stim_set/easy-vcom=2-3.png,stand.png,cooperation,3.75,fall,left,easy,,,,,,,,,,,
stim_set/hard-vcom=1-50.png,stand.png,cooperation,4.0,fall,left,hard,,,,,,,,,,,
stim_set/hard-vcom=1-30.png,fall.png,cooperation,2.5,fall,left,hard,,,,,,,,,,,
stim_set/hard-369.png,stand.png,cooperation,2.5,stand,right,hard,,,,,,,,,,,
stim_set/hard-vcom=1-3.png,stand.png,cooperation,2.25,fall,left,hard,,,,,,,,,,,
stim_set/easy-vcom=4-69.png,fall.png,cooperation,4.0,fall,left,easy,,,,,,,,,,,
stim_set/easy-344.png,stand.png,cooperation,2.75,stand,right,easy,,,,,,,,,,,
stim_set/hard-564.png,fall.png,cooperation,2.25,stand,right,hard,,,,,,,,,,,
stim_set/hard-vcom=3-142.png,stand.png,cooperation,4.0,fall,left,hard,,,,,,,,,,,
stim_set/hard-382.png,stand.png,cooperation,3.75,stand,right,hard,,,,,,,,,,,
stim_set/hard-vcom=4-75.png,fall.png,cooperation,2.0,fall,left,hard,,,,,,,,,,,
stim_set/hard-321.png,fall.png,cooperation,2.25,stand,right,hard,,,,,,,,,,,
stim_set/hard-vcom=2-20.png,stand.png,cooperation,2.0,fall,left,hard,,,,,,,,,,,
stim_set/hard-vcom=4-23.png,fall.png,cooperation,3.0,fall,left,hard,,,,,,,,,,,
stim_set/hard-vcom=1-136.png,stand.png,cooperation,2.75,fall,left,hard,,,,,,,,,,,
stim_set/hard-vcom=1-95.png,fall.png,cooperation,2.5,fall,left,hard,,,,,,,,,,,
stim_set/easy-vcom=1-12.png,stand.png,cooperation,2.25,fall,left,easy,,,,,,,,,,,
stim_set/hard-vcom=2-137.png,stand.png,cooperation,2.25,fall,left,hard,,,,,,,,,,,
stim_set/hard-vcom=2-16.png,fall.png,cooperation,2.25,fall,left,hard,,,,,,,,,,,
stim_set/hard-vcom=2-100.png,stand.png,cooperation,4.0,fall,left,hard,,,,,,,,,,,
stim_set/hard-441.png,fall.png,cooperation,2.0,stand,right,hard,,,,,,,,,,,
stim_set/hard-vcom=3-82.png,fall.png,cooperation,2.5,fall,left,hard,,,,,,,,,,,
stim_set/hard-549.png,stand.png,cooperation,2.25,stand,right,hard,,,,,,,,,,,
stim_set/hard-391.png,stand.png,cooperation,2.75,stand,right,hard,,,,,,,,,,,
stim_set/hard-367.png,fall.png,cooperation,3.75,stand,right,hard,,,,,,,,,,,
stim_set/easy-vcom=4-19.png,fall.png,cooperation,2.25,fall,left,easy,,,,,,,,,,,
stim_set/hard-vcom=4-80.png,stand.png,cooperation,4.0,fall,left,hard,,,,,,,,,,,
stim_set/hard-vcom=4-142.png,fall.png,cooperation,2.25,fall,left,hard,,,,,,,,,,,
stim_set/hard-21.png,fall.png,cooperation,2.5,stand,right,hard,,,,,,,,,,,
stim_set/easy-vcom=3-38.png,stand.png,cooperation,2.25,fall,left,easy,,,,,,,,,,,
stim_set/easy-vcom=3-142.png,fall.png,cooperation,3.25,fall,left,easy,,,,,,,,,,,
stim_set/easy-164.png,stand.png,cooperation,3.75,stand,right,easy,,,,,,,,,,,
stim_set/hard-316.png,fall.png,cooperation,2.5,stand,right,hard,,,,,,,,,,,
stim_set/hard-vcom=4-92.png,stand.png,cooperation,2.25,fall,left,hard,,,,,,,,,,,
stim_set/hard-78.png,fall.png,cooperation,2.25,stand,right,hard,,,,,,,,,,,
stim_set/easy-280.png,stand.png,cooperation,3.0,stand,right,easy,,,,,,,,,,,
stim_set/easy-vcom=1-87.png,fall.png,cooperation,2.5,fall,left,easy,,,,,,,,,,,
stim_set/easy-vcom=1-145.png,stand.png,cooperation,3.75,fall,left,easy,,,,,,,,,,,
stim_set/hard-91.png,fall.png,cooperation,3.75,stand,right,hard,,,,,,,,,,,
stim_set/hard-182.png,stand.png,cooperation,2.75,stand,right,hard,,,,,,,,,,,
stim_set/hard-177.png,stand.png,cooperation,2.0,stand,right,hard,,,,,,,,,,,
stim_set/hard-132.png,fall.png,cooperation,3.0,stand,right,hard,,,,,,,,,,,
stim_set/hard-vcom=2-110.png,fall.png,cooperation,2.5,fall,left,hard,,,,,,,,,,,
stim_set/hard-214.png,fall.png,cooperation,3.25,stand,right,hard,,,,,,,,,,,
stim_set/hard-334.png,stand.png,cooperation,2.75,stand,right,hard,,,,,,,,,,,
stim_set/hard-vcom=1-130.png,fall.png,cooperation,2.5,fall,left,hard,,,,,,,,,,,
stim_set/hard-7.png,stand.png,cooperation,2.75,stand,right,hard,,,,,,,,,,,
stim_set/hard-vcom=4-147.png,fall.png,cooperation,3.25,fall,left,hard,,,,,,,,,,,
stim_set/easy-vcom=4-126.png,stand.png,competition,3.0,fall,left,easy,,,,,,,,,,,
stim_set/easy-280.png,stand.png,competition,3.75,stand,right,easy,,,,,,,,,,,
stim_set/hard-321.png,fall.png,competition,3.0,stand,right,hard,,,,,,,,,,,
stim_set/hard-vcom=2-147.png,stand.png,competition,2.0,fall,left,hard,,,,,,,,,,,
stim_set/hard-2.png,fall.png,competition,2.75,stand,right,hard,,,,,,,,,,,
stim_set/easy-vcom=2-3.png,fall.png,competition,2.5,fall,left,easy,,,,,,,,,,,
stim_set/hard-21.png,stand.png,competition,2.25,stand,right,hard,,,,,,,,,,,
stim_set/easy-vcom=1-12.png,fall.png,competition,2.75,fall,left,easy,,,,,,,,,,,
stim_set/easy-vcom=2-147.png,stand.png,competition,2.5,fall,left,easy,,,,,,,,,,,
stim_set/hard-367.png,fall.png,competition,3.0,stand,right,hard,,,,,,,,,,,
stim_set/hard-vcom=4-80.png,stand.png,competition,2.5,fall,left,hard,,,,,,,,,,,
stim_set/hard-82.png,stand.png,competition,2.25,stand,right,hard,,,,,,,,,,,
stim_set/easy-vcom=4-19.png,fall.png,competition,2.0,fall,left,easy,,,,,,,,,,,
stim_set/hard-7.png,fall.png,competition,2.0,stand,right,hard,,,,,,,,,,,
stim_set/easy-vcom=3-142.png,stand.png,competition,2.5,fall,left,easy,,,,,,,,,,,
stim_set/easy-vcom=3-74.png,fall.png,competition,2.25,fall,left,easy,,,,,,,,,,,
stim_set/hard-vcom=2-16.png,stand.png,competition,2.25,fall,left,hard,,,,,,,,,,,
stim_set/hard-vcom=4-139.png,fall.png,competition,2.5,fall,left,hard,,,,,,,,,,,
stim_set/hard-vcom=4-147.png,fall.png,competition,2.5,fall,left,hard,,,,,,,,,,,
stim_set/easy-vcom=1-87.png,stand.png,competition,2.5,fall,left,easy,,,,,,,,,,,
stim_set/easy-vcom=4-69.png,fall.png,competition,3.0,fall,left,easy,,,,,,,,,,,
stim_set/hard-316.png,fall.png,competition,3.75,stand,right,hard,,,,,,,,,,,
stim_set/easy-13.png,stand.png,competition,2.25,stand,right,easy,,,,,,,,,,,
stim_set/hard-182.png,stand.png,competition,2.25,stand,right,hard,,,,,,,,,,,
stim_set/hard-vcom=4-92.png,fall.png,competition,3.75,fall,left,hard,,,,,,,,,,,
stim_set/hard-564.png,stand.png,competition,4.0,stand,right,hard,,,,,,,,,,,
stim_set/hard-vcom=1-3.png,stand.png,competition,2.5,fall,left,hard,,,,,,,,,,,
stim_set/easy-164.png,fall.png,competition,2.5,stand,right,easy,,,,,,,,,,,
stim_set/hard-vcom=1-50.png,fall.png,competition,3.75,fall,left,hard,,,,,,,,,,,
stim_set/hard-vcom=1-95.png,fall.png,competition,2.25,fall,left,hard,,,,,,,,,,,
stim_set/hard-280.png,fall.png,competition,2.5,stand,right,hard,,,,,,,,,,,
stim_set/hard-14.png,stand.png,competition,4.0,stand,right,hard,,,,,,,,,,,
stim_set/hard-78.png,fall.png,competition,2.5,stand,right,hard,,,,,,,,,,,
stim_set/hard-91.png,fall.png,competition,2.0,stand,right,hard,,,,,,,,,,,
stim_set/hard-vcom=1-30.png,stand.png,competition,2.75,fall,left,hard,,,,,,,,,,,
stim_set/hard-vcom=2-137.png,fall.png,competition,3.0,fall,left,hard,,,,,,,,,,,
stim_set/hard-vcom=1-130.png,fall.png,competition,3.25,fall,left,hard,,,,,,,,,,,
stim_set/hard-vcom=4-23.png,stand.png,competition,3.25,fall,left,hard,,,,,,,,,,,
stim_set/hard-vcom=3-34.png,stand.png,competition,2.5,fall,left,hard,,,,,,,,,,,
stim_set/hard-441.png,fall.png,competition,4.0,stand,right,hard,,,,,,,,,,,
stim_set/hard-244.png,stand.png,competition,4.0,stand,right,hard,,,,,,,,,,,
stim_set/hard-vcom=3-7.png,stand.png,competition,2.25,fall,left,hard,,,,,,,,,,,
stim_set/easy-411.png,stand.png,competition,2.25,stand,right,easy,,,,,,,,,,,
stim_set/hard-vcom=2-20.png,fall.png,competition,3.75,fall,left,hard,,,,,,,,,,,
stim_set/easy-vcom=2-94.png,stand.png,competition,4.0,fall,left,easy,,,,,,,,,,,
stim_set/hard-vcom=3-110.png,fall.png,competition,2.5,fall,left,hard,,,,,,,,,,,
stim_set/hard-vcom=1-136.png,fall.png,competition,3.25,fall,left,hard,,,,,,,,,,,
stim_set/hard-vcom=2-100.png,stand.png,competition,2.75,fall,left,hard,,,,,,,,,,,
stim_set/easy-vcom=3-15.png,stand.png,competition,3.0,fall,left,easy,,,,,,,,,,,
stim_set/easy-590.png,fall.png,competition,4.0,stand,right,easy,,,,,,,,,,,
stim_set/hard-600.png,stand.png,competition,2.25,stand,right,hard,,,,,,,,,,,
stim_set/hard-40.png,fall.png,competition,2.25,stand,right,hard,,,,,,,,,,,
stim_set/easy-vcom=1-73.png,stand.png,competition,4.0,fall,left,easy,,,,,,,,,,,
stim_set/hard-492.png,fall.png,competition,2.25,stand,right,hard,,,,,,,,,,,
stim_set/hard-382.png,stand.png,competition,2.0,stand,right,hard,,,,,,,,,,,
stim_set/hard-vcom=2-110.png,fall.png,competition,2.25,fall,left,hard,,,,,,,,,,,
stim_set/hard-334.png,stand.png,competition,3.25,stand,right,hard,,,,,,,,,,,
stim_set/hard-49.png,fall.png,competition,3.75,stand,right,hard,,,,,,,,,,,
stim_set/hard-vcom=4-142.png,fall.png,competition,2.75,fall,left,hard,,,,,,,,,,,
stim_set/hard-vcom=3-145.png,stand.png,competition,4.0,fall,left,hard,,,,,,,,,,,
stim_set/hard-345.png,fall.png,competition,3.25,stand,right,hard,,,,,,,,,,,
stim_set/hard-599.png,stand.png,competition,2.25,stand,right,hard,,,,,,,,,,,
stim_set/hard-549.png,fall.png,competition,2.75,stand,right,hard,,,,,,,,,,,
stim_set/hard-177.png,stand.png,competition,3.75,stand,right,hard,,,,,,,,,,,
stim_set/easy-vcom=1-145.png,fall.png,competition,2.5,fall,left,easy,,,,,,,,,,,
stim_set/hard-214.png,stand.png,competition,2.0,stand,right,hard,,,,,,,,,,,
stim_set/easy-538.png,fall.png,competition,2.5,stand,right,easy,,,,,,,,,,,
stim_set/hard-vcom=4-75.png,stand.png,competition,3.25,fall,left,hard,,,,,,,,,,,
stim_set/hard-vcom=3-82.png,fall.png,competition,2.25,fall,left,hard,,,,,,,,,,,
stim_set/hard-570.png,stand.png,competition,2.0,stand,right,hard,,,,,,,,,,,
stim_set/hard-566.png,fall.png,competition,3.75,stand,right,hard,,,,,,,,,,,
stim_set/hard-vcom=3-142.png,stand.png,competition,2.75,fall,left,hard,,,,,,,,,,,
stim_set/easy-vcom=3-38.png,stand.png,competition,2.5,fall,left,easy,,,,,,,,,,,
stim_set/easy-77.png,fall.png,competition,2.0,stand,right,easy,,,,,,,,,,,
stim_set/easy-vcom=2-20.png,fall.png,competition,3.0,fall,left,easy,,,,,,,,,,,
stim_set/hard-402.png,stand.png,competition,2.25,stand,right,hard,,,,,,,,,,,
stim_set/hard-369.png,fall.png,competition,3.0,stand,right,hard,,,,,,,,,,,
stim_set/easy-344.png,fall.png,competition,3.25,stand,right,easy,,,,,,,,,,,
stim_set/hard-391.png,stand.png,competition,3.25,stand,right,hard,,,,,,,,,,,
stim_set/hard-132.png,fall.png,competition,2.75,stand,right,hard,,,,,,,,,,,
stim_set/hard-410.png,stand.png,cooperation,3.75,stand,right,hard,,,,,,,,,,,
stim_set/hard-188.png,stand.png,competition,4.0,stand,right,hard,,,,,,,,,,,
