towers,bet,condition,iti,corr_choice,corr_key,difficulty,block_start,trial_start,stim_on,acc,rt,part_choice,part_key,confidence,trial_end,block_end,updated_score,condition_first,cue_on,condition_second
stim_set/hard-600.png,none.png,unmotivated,2.5,stand,right,hard,4.0000013541430235e-06,0.002813750001223525,1.425169416001154,incorrect,1.3774915000012695,fall,left,4.0,7.2802050830014196,,225.0,competition,,cooperation
stim_set/hard-vcom=4-147.png,none.png,unmotivated,2.25,fall,left,hard,,7.281768583001393,10.023756458000207,correct,2.6853464169998915,fall,left,3.0,15.66948229100126,,450.0,,,
stim_set/easy-vcom=1-12.png,none.png,unmotivated,2.0,fall,left,easy,,15.670032250000071,17.49074875000042,correct,1.7642888749996928,fall,left,4.0,23.251566708000606,,665.0,,,
stim_set/hard-492.png,none.png,unmotivated,2.0,stand,right,hard,,23.25221029100066,24.99058150000019,incorrect,1.6833503329999076,fall,left,4.0,30.35495425000045,,,,,
stim_set/hard-vcom=2-137.png,none.png,unmotivated,3.0,fall,left,hard,,30.355536750001196,32.69071475000055,correct,2.284497333001127,fall,left,3.0,40.21103754100113,,,,,
stim_set/easy-vcom=2-147.png,none.png,unmotivated,3.25,fall,left,easy,,40.211575041001204,42.258848416000546,correct,1.9984098330005509,fall,left,4.0,49.117059625001275,,,,,
stim_set/easy-vcom=1-73.png,none.png,unmotivated,2.5,fall,left,easy,,49.117608958000346,51.0588972910009,correct,1.899616499998956,fall,left,3.0,56.26259129100072,,,,,
stim_set/easy-344.png,none.png,unmotivated,4.0,stand,right,easy,,56.26315054100087,59.33409458300048,correct,3.024348082999495,stand,right,2.0,67.64346570800079,,,,,
stim_set/easy-vcom=4-126.png,none.png,unmotivated,2.5,fall,left,easy,,67.6440951250006,70.76574237500063,incorrect,3.0652375829995435,stand,right,3.0,78.01122904100156,,,,,
stim_set/hard-vcom=2-147.png,none.png,unmotivated,2.5,fall,left,hard,,78.01178100000106,79.24071812500007,correct,1.1817962919994898,fall,left,4.0,85.74276925000049,,,,,
stim_set/hard-132.png,none.png,unmotivated,3.75,stand,right,hard,,85.74339450000116,87.11726354100028,incorrect,1.3258019169988984,fall,left,4.0,93.95980216600037,,,,,
stim_set/hard-vcom=3-7.png,none.png,unmotivated,2.75,fall,left,hard,,93.96053912500065,95.57420533300136,correct,1.5615637910013902,fall,left,5.0,101.80901025000094,,,,,
stim_set/hard-391.png,none.png,unmotivated,2.25,stand,right,hard,,101.80962120800177,103.33467604100042,incorrect,1.4769681249999849,fall,left,4.0,109.08502825000141,,,,,
stim_set/hard-402.png,none.png,unmotivated,2.5,stand,right,hard,,109.08576391600036,110.67398866600159,incorrect,1.5330966250003255,fall,left,5.0,115.83022695800173,,,,,
stim_set/easy-13.png,none.png,unmotivated,2.5,stand,right,easy,,115.83087595800134,117.58417425000151,correct,1.7015821659988433,stand,right,4.0,124.89518187500109,,,,,
stim_set/hard-367.png,none.png,unmotivated,2.5,stand,right,hard,,124.8957291660008,126.95754491600019,incorrect,2.0088742919997458,fall,left,3.0,132.48506462500154,,,,,
stim_set/easy-vcom=2-20.png,none.png,unmotivated,2.25,fall,left,easy,,132.48561179100034,134.34284095800103,incorrect,1.8101811670003367,stand,right,1.0,141.1434837910001,,,,,
stim_set/hard-316.png,none.png,unmotivated,2.0,stand,right,hard,,141.14402754100047,142.50754879100168,incorrect,1.311437082998964,fall,left,3.0,148.97904720800034,,,,,
stim_set/hard-82.png,none.png,unmotivated,3.75,stand,right,hard,,148.97963179100043,151.0841790410013,incorrect,2.0546745830015425,fall,left,3.0,158.6412130410008,,,,,
stim_set/hard-564.png,none.png,unmotivated,3.75,stand,right,hard,,158.64184037500127,160.0078110830018,incorrect,1.3102727500008768,fall,left,5.0,166.34435158300042,,,,,
stim_set/hard-vcom=3-142.png,none.png,unmotivated,3.25,fall,left,hard,,166.34489595800002,169.31596341600016,correct,2.914632875001189,fall,left,3.0,176.76032733300053,,,,,
stim_set/hard-566.png,none.png,unmotivated,3.75,stand,right,hard,,176.76089379100085,178.33270900000028,incorrect,1.5150040410007932,fall,left,4.0,184.65648362500173,,,,,
stim_set/hard-280.png,none.png,unmotivated,2.25,stand,right,hard,,184.6570421660017,186.62430512500032,incorrect,1.911236542000552,fall,left,4.0,191.5079745830008,,,,,
stim_set/hard-vcom=3-145.png,none.png,unmotivated,2.75,fall,left,hard,,191.50852483300156,195.6327289580004,incorrect,4.0781000000006316,stand,right,2.0,200.90361762500103,,,,,
stim_set/easy-vcom=2-94.png,none.png,unmotivated,2.75,fall,left,easy,,200.9041385410001,205.5159814580001,correct,4.560587666999709,fall,left,3.0,210.760551583,,,,,
stim_set/hard-vcom=4-80.png,none.png,unmotivated,3.75,fall,left,hard,,210.76126683300026,212.15775462500096,correct,1.3400695420004922,fall,left,4.0,218.48034304100108,,,,,
stim_set/hard-599.png,none.png,unmotivated,3.0,stand,right,hard,,218.48096141600035,222.41603304100136,incorrect,3.889567583999452,fall,left,3.0,227.946019125,,,,,
stim_set/hard-182.png,none.png,unmotivated,4.0,stand,right,hard,,227.9465714580001,229.09267120800172,incorrect,1.1047153340005025,fall,left,5.0,236.35535450000128,,,,,
stim_set/hard-570.png,none.png,unmotivated,2.25,stand,right,hard,,236.35589170800083,237.9599360000011,incorrect,1.551638875000208,fall,left,5.0,243.3723898330008,,,,,
stim_set/easy-vcom=4-69.png,none.png,unmotivated,2.25,fall,left,easy,,243.37295033300146,247.36605079100082,correct,3.9379221670005786,fall,left,2.0,252.23602591600132,,,,,
stim_set/easy-280.png,none.png,unmotivated,3.0,stand,right,easy,,252.23657275000005,253.4745177500008,correct,1.185923749999347,stand,right,4.0,259.37007795800133,,,,,
stim_set/hard-2.png,none.png,unmotivated,2.75,stand,right,hard,,259.3706405000012,263.94275783300145,correct,4.522572208999918,stand,right,2.0,269.2321975000013,,,,,
stim_set/hard-vcom=2-100.png,none.png,unmotivated,3.25,fall,left,hard,,269.23274137500084,271.55945529100063,correct,2.2776505410001846,fall,left,3.0,278.89465445800124,,,,,
stim_set/hard-177.png,none.png,unmotivated,2.0,stand,right,hard,,278.8953867910004,280.14955312500024,incorrect,1.2076855420000356,fall,left,5.0,284.8985056250003,,,,,
stim_set/hard-244.png,none.png,unmotivated,3.25,stand,right,hard,,284.89905595800155,286.95108920800163,incorrect,2.000273584000752,fall,left,3.0,293.8292285000007,,,,,
stim_set/easy-538.png,none.png,unmotivated,2.5,stand,right,easy,,293.82979470800086,295.16623762500063,correct,1.286331125000288,stand,right,4.0,300.8300070000005,,,,,
stim_set/easy-vcom=3-15.png,none.png,unmotivated,2.25,fall,left,easy,,300.83055820800115,302.99132658300005,correct,2.1078346670001338,fall,left,3.0,308.98382933300127,,,,,
stim_set/easy-vcom=1-145.png,none.png,unmotivated,3.75,fall,left,easy,,308.9843760000004,310.4845900830005,correct,1.4509176669998851,fall,left,3.0,318.44572600000174,,,,,
stim_set/hard-vcom=4-92.png,none.png,unmotivated,2.75,fall,left,hard,,318.4462747080015,319.95176037500096,correct,1.4533255839996857,fall,left,5.0,325.2967277910011,,,,,
stim_set/easy-vcom=1-87.png,none.png,unmotivated,3.0,fall,left,easy,,325.29724295800037,327.06625525000163,correct,1.7141686659997504,fall,left,4.0,332.91498500000125,332.9153366250012,,,,
stim_set/easy-vcom=3-142.png,none.png,unmotivated,2.75,fall,left,easy,341.36977520800065,341.37062145800155,344.49276658300005,correct,3.0728654590002407,fall,left,3.0,351.16942270800064,,,,,
stim_set/easy-590.png,none.png,unmotivated,2.5,stand,right,easy,,351.16997575000084,352.4263385000013,correct,1.2047364999998535,stand,right,4.0,357.6389412500012,,,,,
stim_set/hard-78.png,none.png,unmotivated,2.25,stand,right,hard,,357.6395234160009,359.14368825000014,incorrect,1.4539343749984257,fall,left,3.0,365.8368707080008,,,,,
stim_set/hard-214.png,none.png,unmotivated,3.25,stand,right,hard,,365.837420541,366.9829975410012,incorrect,1.0894872500011843,fall,left,4.0,374.7970930000008,,,,,
stim_set/hard-49.png,none.png,unmotivated,2.25,stand,right,hard,,374.7976576660003,375.8997341250016,incorrect,1.0445057920005638,fall,left,4.0,383.5101547500017,,,,,
stim_set/hard-441.png,none.png,unmotivated,2.5,stand,right,hard,,383.51065883300004,388.5747499160008,incorrect,,,,,393.52435087500083,,,,,
stim_set/hard-369.png,none.png,unmotivated,2.0,stand,right,hard,,393.524942041,394.8829978330014,incorrect,1.3121557920003395,fall,left,4.0,400.3397882910013,,,,,
stim_set/hard-345.png,none.png,unmotivated,2.5,stand,right,hard,,400.3403541660009,403.2598052080011,correct,2.8726302909999504,stand,right,2.0,408.694411208,,,,,
stim_set/easy-vcom=3-38.png,none.png,unmotivated,2.5,fall,left,easy,,408.69509879100036,410.716316166001,correct,1.9657852079999432,fall,left,3.0,416.4548684580004,,,,,
stim_set/hard-vcom=2-16.png,none.png,unmotivated,2.5,fall,left,hard,,416.4554465830007,418.2997716660011,correct,1.7878854169994156,fall,left,4.0,424.3927081660004,,,,,
stim_set/easy-vcom=3-74.png,none.png,unmotivated,2.25,fall,left,easy,,424.3933025410006,426.51783783300016,correct,2.0738396249998914,fall,left,4.0,431.20393008300016,,,,,
stim_set/easy-vcom=2-3.png,none.png,unmotivated,4.0,fall,left,easy,,431.20457616600106,433.5439355830004,correct,2.28903791599987,fall,left,3.0,440.1465595000008,,,,,
stim_set/hard-vcom=4-75.png,none.png,unmotivated,2.5,fall,left,hard,,440.14730350000167,442.2259910410012,correct,2.028265500000998,fall,left,5.0,447.2469993330014,,,,,
stim_set/hard-vcom=3-34.png,none.png,unmotivated,2.0,fall,left,hard,,447.2475490830002,448.56627887500144,correct,1.2623626250006057,fall,left,5.0,453.08499887500153,,,,,
stim_set/easy-164.png,none.png,unmotivated,4.0,stand,right,easy,,453.0856591660013,455.83280716600166,incorrect,2.69027237499904,fall,left,3.0,462.7152555410012,,,,,
stim_set/hard-382.png,none.png,unmotivated,2.75,stand,right,hard,,462.71587704100057,464.7850262910015,incorrect,2.027536416000657,fall,left,4.0,471.9302768750004,,,,,
stim_set/hard-vcom=1-130.png,none.png,unmotivated,2.25,fall,left,hard,,471.93090604100144,473.15118395800164,correct,1.1737612499982788,fall,left,4.0,477.83602158300164,,,,,
stim_set/easy-411.png,none.png,unmotivated,4.0,stand,right,easy,,477.8365680830011,479.97475029100127,correct,2.082281667000643,stand,right,3.0,486.8826872500012,,,,,
stim_set/hard-40.png,none.png,unmotivated,3.0,stand,right,hard,,486.8833087500008,488.52476362500056,incorrect,1.5860750829997414,fall,left,5.0,494.2347812910011,,,,,
stim_set/hard-vcom=4-139.png,none.png,unmotivated,4.0,fall,left,hard,,494.23542483300116,496.60185812500083,correct,2.318662541998492,fall,left,3.0,502.7618899580011,,,,,
stim_set/hard-vcom=1-30.png,none.png,unmotivated,3.75,fall,left,hard,,502.7624397080017,504.6581805410006,correct,1.7838757089994033,fall,left,5.0,510.8644794160009,,,,,
stim_set/hard-vcom=3-82.png,none.png,unmotivated,2.25,fall,left,hard,,510.86503141600036,512.5830177500011,correct,1.6630649169983371,fall,left,4.0,518.0690972910015,,,,,
stim_set/hard-321.png,none.png,unmotivated,2.25,stand,right,hard,,518.0697328750011,520.1580155830014,correct,2.0369595420015685,stand,right,1.0,526.869406916001,,,,,
stim_set/hard-vcom=2-20.png,none.png,unmotivated,2.25,fall,left,hard,,526.8699853750004,528.8332497910013,correct,1.9075487079990123,fall,left,4.0,535.91998375,,,,,
stim_set/hard-vcom=1-95.png,none.png,unmotivated,2.0,fall,left,hard,,535.9205061660014,540.7582132500012,correct,4.786043750000316,fall,left,2.0,545.3785987500014,,,,,
stim_set/hard-vcom=4-23.png,none.png,unmotivated,2.5,fall,left,hard,,545.3791657500005,550.4415166250002,incorrect,,,,,554.8507070000014,,,,,
stim_set/hard-334.png,none.png,unmotivated,2.0,stand,right,hard,,554.8513205000016,556.891504833,incorrect,1.988957999999912,fall,left,4.0,564.0946826660003,,,,,
stim_set/hard-14.png,none.png,unmotivated,3.25,stand,right,hard,,564.0951995830001,566.7247721660005,incorrect,2.582484415999716,fall,left,3.0,572.4210172080003,,,,,
stim_set/hard-vcom=1-136.png,none.png,unmotivated,2.5,fall,left,hard,,572.4215843330003,574.5330390830004,correct,2.0596235840002923,fall,left,4.0,579.494197041,,,,,
stim_set/hard-vcom=3-110.png,none.png,unmotivated,3.0,fall,left,hard,,579.4948495000008,581.1998281250018,correct,1.6590382499998668,fall,left,5.0,586.8190320000012,,,,,
stim_set/hard-549.png,none.png,unmotivated,3.25,stand,right,hard,,586.8196638330011,588.624760875,incorrect,1.7515320419988711,fall,left,4.0,594.4680764160003,,,,,
stim_set/hard-vcom=1-3.png,none.png,unmotivated,2.75,fall,left,hard,,594.4686328750013,596.2081015830007,correct,1.6861364579999645,fall,left,5.0,601.5922453330004,,,,,
stim_set/hard-vcom=2-110.png,none.png,unmotivated,3.0,fall,left,hard,,601.5927759580009,603.6179096250016,correct,1.978330832998836,fall,left,4.0,609.0736726250016,,,,,
stim_set/hard-7.png,none.png,unmotivated,2.25,stand,right,hard,,609.0743115410005,611.1164556660005,incorrect,1.9844092080002158,fall,left,3.0,615.8678367500015,,,,,
stim_set/hard-21.png,none.png,unmotivated,4.0,stand,right,hard,,615.8684635830014,617.6830151250015,incorrect,1.7627647500012245,fall,left,4.0,624.3310237080004,,,,,
stim_set/hard-vcom=4-142.png,none.png,unmotivated,4.0,fall,left,hard,,624.3315898750006,626.4662842080015,correct,2.081507791999684,fall,left,3.0,634.4040197080012,,,,,
stim_set/hard-91.png,none.png,unmotivated,2.25,stand,right,hard,,634.4045671660006,636.466440958,incorrect,2.0071704579986545,fall,left,3.0,642.382216041,,,,,
stim_set/easy-77.png,none.png,unmotivated,3.0,stand,right,easy,,642.3827730410013,644.2596322080008,correct,1.8297709170001328,stand,right,4.0,650.1390578330011,,,,,
stim_set/easy-vcom=4-19.png,none.png,unmotivated,3.25,fall,left,easy,,650.1397399580001,653.1080098750008,incorrect,2.9121108330000425,stand,right,3.0,658.9806084580014,,,,,
stim_set/hard-vcom=1-50.png,none.png,unmotivated,3.75,fall,left,hard,,658.9811987500016,660.1747070410001,correct,1.1370617079992371,fall,left,4.0,667.2338288330011,667.2341567080002,,,,
stim_set/easy-vcom=2-20.png,stand.png,cooperation,4.0,fall,left,easy,0.00013025000043853652,0.0007459999997081468,8.014951458999349,incorrect,2.9786685409999336,stand,right,3,14.408785499999794,,,,1.0130443340003694,
stim_set/hard-570.png,stand.png,cooperation,2.0,stand,right,hard,,14.4093428340002,21.271735791999163,incorrect,1.8195994170000631,fall,left,4,25.84993358399879,,,,15.42003916700014,
stim_set/hard-vcom=3-110.png,stand.png,cooperation,2.0,fall,left,hard,,25.850483333999364,32.13181141699897,correct,1.2531438750011148,fall,left,4,36.32921295899905,,,,26.861150291999365,
stim_set/hard-600.png,fall.png,cooperation,3.0,stand,right,hard,,36.329766791999646,43.09688837499925,incorrect,1.7353612079987215,fall,left,4,48.338356083999315,,,,37.3395643749991,
stim_set/hard-244.png,stand.png,cooperation,2.5,stand,right,hard,,48.338980459000595,55.38164912499997,incorrect,2.004275500001313,fall,left,3,61.3344053339988,,,,49.34987912500037,
stim_set/easy-vcom=1-73.png,stand.png,cooperation,2.5,fall,left,easy,,61.335003209000206,68.33020316699913,correct,1.9618542500011245,fall,left,4,73.26143441699969,,,,62.345819333999316,
stim_set/easy-vcom=3-15.png,fall.png,cooperation,3.0,fall,left,easy,,73.26195466699937,80.69665304199953,correct,2.3960029579993716,fall,left,3,85.96914962499977,,,,74.27207787499901,
stim_set/hard-vcom=3-145.png,stand.png,cooperation,3.75,fall,left,hard,,85.96971720900001,94.06339937499979,correct,3.061336790999121,fall,left,2,99.99129462500059,,,,86.98023120899961,
stim_set/easy-vcom=3-74.png,fall.png,cooperation,2.25,fall,left,easy,,99.99186020900015,106.94852183399962,correct,1.9191809170006309,fall,left,3,111.48309508400052,,,,101.002559999999,
stim_set/easy-77.png,fall.png,cooperation,2.5,stand,right,easy,,111.48363925000012,117.63987983399966,correct,1.122441917001197,stand,right,5,123.1661387919994,,,,112.49430050000046,
stim_set/easy-538.png,stand.png,cooperation,2.5,stand,right,easy,,123.16677637499924,130.08836625000004,correct,1.8843405839998013,stand,right,5,135.79063133399904,,,,124.17778691700005,
stim_set/hard-vcom=3-34.png,fall.png,cooperation,3.25,fall,left,hard,,135.79120058399894,142.05515766700046,correct,1.220868166999935,fall,left,4,148.31543741699898,,,,136.80152400000043,
stim_set/hard-vcom=4-139.png,stand.png,cooperation,2.75,fall,left,hard,,148.3159986669998,156.56339016699894,correct,3.2079151249999995,fall,left,3,162.58470266699987,,,,149.32622487499975,
stim_set/easy-13.png,fall.png,cooperation,3.25,stand,right,easy,,162.58525520900002,170.36484420899978,incorrect,2.7411961249999877,fall,left,3,176.47652516699964,,,,163.59594291699977,
stim_set/hard-280.png,stand.png,cooperation,3.25,stand,right,hard,,176.47705512500033,182.61507520899977,incorrect,1.1001562500005093,fall,left,4,188.51512829199964,,,,177.48758983399966,
stim_set/hard-599.png,fall.png,cooperation,2.0,stand,right,hard,,188.51573462499982,195.9883248749993,incorrect,2.4399224999997386,fall,left,4,200.14657708400046,,,,189.52622270899883,
stim_set/hard-402.png,fall.png,cooperation,3.75,stand,right,hard,,200.14713920899885,206.53141516699907,incorrect,1.3477393749999464,fall,left,4,212.50367120900046,,,,201.15714212499915,
stim_set/easy-vcom=2-147.png,fall.png,cooperation,3.0,fall,left,easy,,212.5042594589995,219.4151265420005,correct,1.8754125420000491,fall,left,2,225.99534250000033,,,,213.51426504200026,
stim_set/hard-2.png,stand.png,cooperation,3.25,stand,right,hard,,225.99588041700008,233.0320437499995,correct,1.999104750000697,stand,right,2,238.57889624999916,,,,227.00657470899932,
stim_set/hard-566.png,fall.png,cooperation,3.25,stand,right,hard,,238.57948779199978,246.8551390419998,incorrect,3.232570416001181,fall,left,4,252.68390754199936,,,,239.58933162500034,
stim_set/easy-590.png,fall.png,cooperation,4.0,stand,right,easy,,252.68442729199887,258.7481349999998,correct,1.0256429159999243,stand,right,5,265.0328950839994,,,,253.69452287499917,
stim_set/easy-vcom=4-126.png,stand.png,cooperation,2.5,fall,left,easy,,265.03343241699986,271.138170917,incorrect,1.0613967919998686,stand,right,4,276.0614301249989,,,,266.0439729999998,
stim_set/easy-vcom=2-94.png,stand.png,cooperation,4.0,fall,left,easy,,276.0619851249994,282.68832912499965,correct,1.587279875000604,fall,left,3,289.7294499999989,,,,277.07233666699904,
stim_set/hard-vcom=2-147.png,fall.png,cooperation,2.5,fall,left,hard,,289.73006466699917,296.25635662499917,correct,1.498912000000928,fall,left,4,301.11721220899926,,,,290.7403794999991,
stim_set/easy-411.png,stand.png,cooperation,2.0,stand,right,easy,,301.11773987500055,307.0216613339999,correct,0.861470374999044,stand,right,5,311.6013463340005,,,,302.1280442089992,
stim_set/hard-vcom=3-7.png,fall.png,cooperation,2.75,fall,left,hard,,311.6019899999992,317.89639258399984,correct,1.2568634170002042,fall,left,4,323.39985329199953,,,,312.61203029199896,
stim_set/hard-14.png,fall.png,cooperation,2.5,stand,right,hard,,323.40040208400023,331.32160141699933,incorrect,2.8884578329998476,fall,left,2,336.0614262090003,,,,324.4107118339998,
stim_set/hard-49.png,stand.png,cooperation,3.0,stand,right,hard,,336.0619922089991,343.5131457089992,incorrect,2.407235999999102,fall,left,4,349.2988852090002,,,,337.0725745,
stim_set/hard-82.png,fall.png,cooperation,2.25,stand,right,hard,,349.2995784169998,356.029918541999,incorrect,1.6889563749991794,fall,left,4,360.6830573339994,,,,350.31029245900027,
stim_set/hard-492.png,stand.png,cooperation,2.25,stand,right,hard,,360.6835901249997,366.997851791999,incorrect,1.2791815000000497,fall,left,3,371.80439854199903,,,,361.6941767499993,
stim_set/hard-345.png,stand.png,cooperation,2.25,stand,right,hard,,371.8049868750004,378.73969845899956,correct,1.9009270839997043,stand,right,2,383.25101662499947,,,,372.81560762499976,
stim_set/hard-40.png,fall.png,cooperation,3.0,stand,right,hard,,383.2515590839994,389.7898209169998,incorrect,1.5021141659999557,fall,left,4,395.0574967499997,,,,384.2618008749996,
stim_set/easy-vcom=2-3.png,stand.png,cooperation,3.75,fall,left,easy,,395.0580600840003,401.12311766699895,incorrect,1.0291626669986726,stand,right,2,407.32719620900025,,,,396.06877112499933,
stim_set/hard-vcom=1-50.png,stand.png,cooperation,4.0,fall,left,hard,,407.32783429200026,413.5798894999989,correct,1.207892083999468,fall,left,4,419.67334816699986,,,,408.33929795899894,
stim_set/hard-vcom=1-30.png,fall.png,cooperation,2.5,fall,left,hard,,419.6738837920002,425.8570146250004,correct,1.1502525420000893,fall,left,4,430.6287690419995,,,,420.6843482919994,
stim_set/hard-369.png,stand.png,cooperation,2.5,stand,right,hard,,430.62931899999967,436.78140491699924,incorrect,1.124376834000941,fall,left,4,441.63777687499896,,,,431.6398658340004,
stim_set/hard-vcom=1-3.png,stand.png,cooperation,2.25,fall,left,hard,,441.63831316699907,447.7883252089996,correct,1.1100076669990813,fall,left,5,452.33145258399963,,,,442.6492207499996,
stim_set/easy-vcom=4-69.png,fall.png,cooperation,4.0,fall,left,easy,,452.33198695899955,458.86315229200045,incorrect,1.4883123330000672,stand,right,2,465.1853956670002,,,,453.3429097499993,
stim_set/easy-344.png,stand.png,cooperation,2.75,stand,right,easy,,465.18619124999896,472.7381084589997,correct,2.5132271250004123,stand,right,2,477.80762945899914,,,,466.1970107500001,
stim_set/hard-564.png,fall.png,cooperation,2.25,stand,right,hard,,477.8081494170001,483.9232869589996,incorrect,1.078463207999448,fall,left,5,488.4679792499992,488.4683054590005,,,478.8184044999998,
stim_set/hard-vcom=3-142.png,stand.png,cooperation,4.0,fall,left,hard,490.7926874169989,490.79350474999956,497.07141299999967,correct,1.2345381670002098,fall,left,3,503.52175104199887,,,,491.80500683399987,
stim_set/hard-382.png,stand.png,cooperation,3.75,stand,right,hard,,503.52246420899974,510.4229534999995,incorrect,1.872715542000151,fall,left,4,516.4946556249997,,,,504.5332640839988,
stim_set/hard-vcom=4-75.png,fall.png,cooperation,2.0,fall,left,hard,,516.4952566669999,523.6065082919995,correct,2.0739910419997614,fall,left,4,528.3150289999994,,,,517.5053964589988,
stim_set/hard-321.png,fall.png,cooperation,2.25,stand,right,hard,,528.3156491249993,534.5630958339989,incorrect,1.2097072920005303,fall,left,4,539.0514317920006,,,,529.3259983749995,
stim_set/hard-vcom=2-20.png,stand.png,cooperation,2.0,fall,left,hard,,539.0520164169993,545.7396762919998,correct,1.6499457499994605,fall,left,3,549.8488089589991,,,,540.0625379590001,
stim_set/hard-vcom=4-23.png,fall.png,cooperation,3.0,fall,left,hard,,549.8493572089992,558.037887041999,correct,3.1505411670004833,fall,left,3,563.1129633749988,,,,550.8593211669995,
stim_set/hard-vcom=1-136.png,stand.png,cooperation,2.75,fall,left,hard,,563.1135778749995,569.8379288750002,correct,1.6855343749994063,fall,left,4,574.7189487920004,,,,564.1242579169993,
stim_set/hard-vcom=1-95.png,fall.png,cooperation,2.5,fall,left,hard,,574.7195028749993,582.3214212919993,incorrect,2.563723499999469,stand,right,2,587.0934855840005,,,,575.7295375419999,
stim_set/easy-vcom=1-12.png,stand.png,cooperation,2.25,fall,left,easy,,587.0940381669989,594.321343874999,correct,2.1855463329993654,fall,left,3,599.7401135420005,,,,588.1044330839995,
stim_set/hard-vcom=2-137.png,stand.png,cooperation,2.25,fall,left,hard,,599.7406716669993,606.363122625,incorrect,1.5860914160002721,stand,right,2,610.8507437919998,,,,600.7512147919988,
stim_set/hard-vcom=2-16.png,fall.png,cooperation,2.25,fall,left,hard,,610.8512978340004,619.0546780419991,correct,3.160181166000257,fall,left,3,623.4834573749995,,,,611.8613891249988,
stim_set/hard-vcom=2-100.png,stand.png,cooperation,4.0,fall,left,hard,,623.4839924169992,630.1129247089993,correct,1.5899019580010645,fall,left,4,636.4404225420003,,,,624.4941732919997,
stim_set/hard-441.png,fall.png,cooperation,2.0,stand,right,hard,,636.4412329169991,643.5228960000004,correct,2.0503114579987596,stand,right,2,647.7375746670004,,,,637.4514075419993,
stim_set/hard-vcom=3-82.png,fall.png,cooperation,2.5,fall,left,hard,,647.7382297919994,656.8481231249989,correct,4.072963667000295,fall,left,3,661.5897481249995,,,,648.7490050420001,
stim_set/hard-549.png,stand.png,cooperation,2.25,stand,right,hard,,661.5904162919996,669.0630261249989,incorrect,2.4318547080001736,fall,left,3,673.6671242089997,,,,662.6013725840003,
stim_set/hard-391.png,stand.png,cooperation,2.75,stand,right,hard,,673.667695791999,682.1645151249995,correct,3.4631981250004173,stand,right,3,687.7836648339999,,,,674.678448708999,
stim_set/hard-367.png,fall.png,cooperation,3.75,stand,right,hard,,687.7841953749994,694.8976522499997,incorrect,2.0798418340000353,fall,left,2,700.8623183340005,,,,688.7943658749991,
stim_set/easy-vcom=4-19.png,fall.png,cooperation,2.25,fall,left,easy,,700.862845833999,709.4472787089999,incorrect,3.5480747500005236,stand,right,2,713.8824536669999,,,,701.8726647919993,
stim_set/hard-vcom=4-80.png,stand.png,cooperation,4.0,fall,left,hard,,713.8829888340006,721.5726361670004,correct,2.6518895830013207,fall,left,4,727.9925278339997,,,,714.893291417,
stim_set/hard-vcom=4-142.png,fall.png,cooperation,2.25,fall,left,hard,,727.9930648339996,736.8713577500002,correct,3.839320625000255,fall,left,4,741.3557706249994,,,,729.003583959,
stim_set/hard-21.png,fall.png,cooperation,2.5,stand,right,hard,,741.3564372090004,747.7896559170003,incorrect,1.4006424580002204,fall,left,4,752.5090363340005,,,,742.3664245839991,
stim_set/easy-vcom=3-38.png,stand.png,cooperation,2.25,fall,left,easy,,752.5097631669996,759.1878986669999,correct,1.6357031250008731,fall,left,2,763.722118959,,,,753.5206198750002,
stim_set/easy-vcom=3-142.png,fall.png,cooperation,3.25,fall,left,easy,,763.7226401249991,769.6295981250005,incorrect,0.8659095420007361,stand,right,2,775.091611124999,,,,764.7329091249994,
stim_set/easy-164.png,stand.png,cooperation,3.75,stand,right,easy,,775.0922259170002,781.1961500420002,correct,1.0616880420002417,stand,right,4,787.3592457089999,,,,776.1027440839989,
stim_set/hard-316.png,fall.png,cooperation,2.5,stand,right,hard,,787.3598582920004,794.6379209589995,incorrect,2.239951542000199,fall,left,3,799.4044648750005,,,,788.3704428339988,
stim_set/hard-vcom=4-92.png,stand.png,cooperation,2.25,fall,left,hard,,799.4051774999989,806.1628878749998,correct,1.7138592089995655,fall,left,4,810.6674701669999,,,,800.4159406250001,
stim_set/hard-78.png,fall.png,cooperation,2.25,stand,right,hard,,810.6680911669991,817.4962178339993,incorrect,1.7876070830006938,fall,left,3,822.5076399589998,,,,811.6781497920001,
stim_set/easy-280.png,stand.png,cooperation,3.0,stand,right,easy,,822.5082323749994,828.4146844589995,correct,0.8728265839999949,stand,right,5,833.6090466669993,,,,823.5185550419992,
stim_set/easy-vcom=1-87.png,fall.png,cooperation,2.5,fall,left,easy,,833.6096063749992,841.1379770839994,correct,2.4867140829992422,fall,left,1,846.8064016669996,,,,834.6196600419989,
stim_set/easy-vcom=1-145.png,stand.png,cooperation,3.75,fall,left,easy,,846.806905292,853.1727072499998,correct,1.329924707999453,fall,left,4,859.527011791999,,,,847.8174136670004,
stim_set/hard-91.png,fall.png,cooperation,3.75,stand,right,hard,,859.5276652499997,867.2150062090004,incorrect,2.6513575830012996,fall,left,3,873.7516517919994,,,,860.5381169169996,
stim_set/hard-182.png,stand.png,cooperation,2.75,stand,right,hard,,873.7522992499999,880.1812181669993,incorrect,1.4011532089989487,fall,left,4,885.134830084,,,,874.7631937499991,
stim_set/hard-177.png,stand.png,cooperation,2.0,stand,right,hard,,885.1356051250004,891.2046169589994,incorrect,1.035742416001085,fall,left,5,895.3924503340004,,,,886.146333749999,
stim_set/hard-132.png,fall.png,cooperation,3.0,stand,right,hard,,895.3931802499992,902.3309193339992,incorrect,1.9040751249995083,fall,left,4,908.0174937499996,,,,896.4034195839995,
stim_set/hard-vcom=2-110.png,fall.png,cooperation,2.5,fall,left,hard,,908.0180250840003,915.3628857089989,correct,2.307759375000387,fall,left,4,922.9775515420006,,,,909.0281946249997,
stim_set/hard-214.png,fall.png,cooperation,3.25,stand,right,hard,,922.9781031250004,931.3891636669996,incorrect,3.374325291999412,fall,left,3,937.2024387500005,,,,923.9880227499998,
stim_set/hard-334.png,stand.png,cooperation,2.75,stand,right,hard,,937.2029527499999,943.6296486669999,incorrect,1.389546499998687,fall,left,4,948.6465503750005,,,,938.2132929170002,
stim_set/hard-vcom=1-130.png,fall.png,cooperation,2.5,fall,left,hard,,948.6471030419998,955.0961242089998,correct,1.4117659580006148,fall,left,4,960.0446565419988,,,,949.6573042500004,
stim_set/hard-7.png,stand.png,cooperation,2.75,stand,right,hard,,960.0452166670002,969.1566427500002,incorrect,4.073080582998955,fall,left,2,974.1594974170002,,,,961.0550631249989,
stim_set/hard-vcom=4-147.png,fall.png,cooperation,3.25,fall,left,hard,,974.1601166250002,982.471191958999,correct,3.267646374999458,fall,left,4,988.8266199999998,988.8269552919992,,,975.1706703750006,
stim_set/easy-vcom=4-126.png,stand.png,competition,3.0,fall,left,easy,0.00015312499999708962,0.0007797500002197921,6.817743292000159,incorrect,1.7762522079992775,stand,right,3.0,12.721827917001065,,,,1.0137567500005389,
stim_set/easy-280.png,stand.png,competition,3.75,stand,right,easy,,12.722347917000661,19.174600000000282,correct,1.4131948329995794,stand,right,5.0,26.168735917000962,,,,13.733337292000215,
stim_set/hard-321.png,fall.png,competition,3.0,stand,right,hard,,26.16928287500013,33.80039883400059,incorrect,2.598512499998833,fall,left,4.0,39.385176208999845,,,,27.180351125000016,
stim_set/hard-vcom=2-147.png,stand.png,competition,2.0,fall,left,hard,,39.385920500000786,46.58280891700088,correct,2.164600750000318,fall,left,3.0,52.369425000000774,,,,40.39644612499977,
stim_set/hard-2.png,fall.png,competition,2.75,stand,right,hard,,52.369964792000246,60.69929633399988,correct,3.2882632500004547,stand,right,2.0,65.99104350000015,,,,53.38029641700086,
stim_set/easy-vcom=2-3.png,fall.png,competition,2.5,fall,left,easy,,65.991662542001,74.590637917001,correct,3.5590700840002683,fall,left,3.0,79.73280129200066,,,,67.00221616700037,
stim_set/hard-21.png,stand.png,competition,2.25,stand,right,hard,,79.73336254199967,86.32589379199999,incorrect,1.5600395410001506,fall,left,4.0,91.57085387500048,,,,80.74387729200134,
stim_set/easy-vcom=1-12.png,fall.png,competition,2.75,fall,left,easy,,91.5715350420014,98.69930779199969,correct,2.0857710000000225,fall,left,4.0,104.17495729199982,,,,92.58198566700048,
stim_set/easy-vcom=2-147.png,stand.png,competition,2.5,fall,left,easy,,104.17551337500116,112.95936570900083,correct,3.748170708000544,fall,left,2.0,119.35874629200045,,,,105.18635141699995,
stim_set/hard-367.png,fall.png,competition,3.0,stand,right,hard,,119.35948975000065,129.11785000000054,incorrect,4.724282375000257,fall,left,2.0,134.64023295900006,,,,120.36992350000037,
stim_set/hard-vcom=4-80.png,stand.png,competition,2.5,fall,left,hard,,134.64083954200032,141.45909416700124,correct,1.780112291999103,fall,left,3.0,149.5856377500004,,,,135.6516630839997,
stim_set/hard-82.png,stand.png,competition,2.25,stand,right,hard,,149.58620370900096,157.7507949589999,correct,3.128045333000045,stand,right,3.0,163.16434654200017,,,,150.59719233400028,
stim_set/easy-vcom=4-19.png,fall.png,competition,2.0,fall,left,easy,,163.16486545900082,170.3825465420014,incorrect,2.1758471659995853,stand,right,2.0,175.72978083400085,,,,164.17493224999996,
stim_set/hard-7.png,fall.png,competition,2.0,stand,right,hard,,175.73043591700116,184.88252837500116,incorrect,4.1090115000006335,fall,left,3.0,189.4239207500013,,,,176.74066225000027,
stim_set/easy-vcom=3-142.png,stand.png,competition,2.5,fall,left,easy,,189.4244806250008,199.19884320900022,incorrect,4.733390125000369,stand,right,2.0,204.36429804200088,,,,190.43536675,
stim_set/easy-vcom=3-74.png,fall.png,competition,2.25,fall,left,easy,,204.36486591700125,211.3908179170012,correct,1.9846870830006085,fall,left,4.0,216.51450329200088,,,,205.37466575000144,
stim_set/hard-vcom=2-16.png,stand.png,competition,2.25,fall,left,hard,,216.51525629200114,225.47410066700104,correct,3.915780416999041,fall,left,3.0,231.85211637500103,,,,217.52539249999973,
stim_set/hard-vcom=4-139.png,fall.png,competition,2.5,fall,left,hard,,231.85273537500146,239.19907500000042,incorrect,2.3074674170002254,stand,right,1.0,245.94405941700097,,,,232.8638259590007,
stim_set/hard-vcom=4-147.png,fall.png,competition,2.5,fall,left,hard,,245.94462541699974,253.1990317920008,correct,2.211175041999013,fall,left,4.0,258.2773148340002,,,,246.95483083399998,
stim_set/easy-vcom=1-87.png,stand.png,competition,2.5,fall,left,easy,,258.2780279590006,265.9490845,incorrect,2.6292935000001307,stand,right,3.0,270.9080953339999,,,,259.2884785839997,
stim_set/easy-vcom=4-69.png,fall.png,competition,3.0,fall,left,easy,,270.90882000000056,278.05730733400014,incorrect,2.1068296670000564,stand,right,2.0,285.1210462920008,,,,271.9188129169997,
stim_set/hard-316.png,fall.png,competition,3.75,stand,right,hard,,285.1216736670013,292.63441395900014,incorrect,2.4787793750001583,fall,left,3.0,299.80870495900126,,,,286.1326355000001,
stim_set/easy-13.png,stand.png,competition,2.25,stand,right,easy,,299.8092316250004,306.25034783400037,correct,1.4036738330014489,stand,right,4.0,310.9065556250007,,,,300.8198468749997,
stim_set/hard-182.png,stand.png,competition,2.25,stand,right,hard,,310.9071748340011,318.0088382089998,incorrect,2.074627332998716,fall,left,3.0,325.3049851249998,,,,311.9173768750006,
stim_set/hard-vcom=4-92.png,fall.png,competition,3.75,fall,left,hard,,325.30555033400015,333.19228354200095,correct,2.8488197500009846,fall,left,4.0,342.56879020900124,,,,326.3160295840007,
stim_set/hard-564.png,stand.png,competition,4.0,stand,right,hard,,342.56927254200133,349.34055716700095,incorrect,1.7289102499998992,fall,left,3.0,357.88921350000055,,,,343.5800912499999,
stim_set/hard-vcom=1-3.png,stand.png,competition,2.5,fall,left,hard,,357.8898120000012,364.575201167001,correct,1.651145916999667,fall,left,4.0,369.67652233400077,,,,358.9005811250008,
stim_set/easy-164.png,fall.png,competition,2.5,stand,right,easy,,369.6770705840008,377.0166099170001,correct,2.3022452910008724,stand,right,4.0,381.91716616700063,,,,370.6875586670012,
stim_set/hard-vcom=1-50.png,fall.png,competition,3.75,fall,left,hard,,381.9177476670011,389.3990340420005,correct,2.4384776250008144,fall,left,4.0,397.34359387500086,,,,382.9283183750012,
stim_set/hard-vcom=1-95.png,fall.png,competition,2.25,fall,left,hard,,397.3441784170009,407.3654970000007,correct,4.98376024999925,fall,left,3.0,414.3877584170005,,,,398.3543737500004,
stim_set/hard-280.png,fall.png,competition,2.5,stand,right,hard,,414.3883210420008,423.0655669999997,incorrect,3.6352698750015406,fall,left,3.0,429.67807250000084,,,,415.3986467089999,
stim_set/hard-14.png,stand.png,competition,4.0,stand,right,hard,,429.67863058400144,438.0487828340009,incorrect,3.337989875000858,fall,left,4.0,444.36034891699995,,,,430.68895379199967,
stim_set/hard-78.png,fall.png,competition,2.5,stand,right,hard,,444.36099800000017,453.8001605420013,correct,4.403719125000863,stand,right,2.0,460.943242917001,,,,445.37145691700067,
stim_set/hard-91.png,fall.png,competition,2.0,stand,right,hard,,460.94373420900047,468.2755917920003,incorrect,2.296702915999049,fall,left,4.0,472.55234558400116,,,,461.953751250001,
stim_set/hard-vcom=1-30.png,stand.png,competition,2.75,fall,left,hard,,472.55307258399984,480.6737521670002,correct,3.083119833001547,fall,left,4.0,486.6634884169998,,,,473.56374566700106,
stim_set/hard-vcom=2-137.png,fall.png,competition,3.0,fall,left,hard,,486.66400462500127,496.6251336250007,incorrect,4.9297690839994175,stand,right,2.0,502.1915201250012,,,,487.6745326670007,
stim_set/hard-vcom=1-130.png,fall.png,competition,3.25,fall,left,hard,,502.1920553750005,510.46550079200097,incorrect,3.235572790999868,stand,right,2.0,516.1702133340004,,,,503.2023066250004,
stim_set/hard-vcom=4-23.png,stand.png,competition,3.25,fall,left,hard,,516.1707603750001,525.6238413339997,incorrect,4.41373270800068,stand,right,2.0,532.011346917001,,,,517.181651834,
stim_set/hard-vcom=3-34.png,stand.png,competition,2.5,fall,left,hard,,532.0119073750011,540.5254353750006,correct,3.4754708329983264,fall,left,3.0,545.3000592919998,,,,533.0225411250012,
stim_set/hard-441.png,fall.png,competition,4.0,stand,right,hard,,545.3006539590007,554.4238597920012,correct,4.0862300419994435,stand,right,2.0,560.9688022500013,560.9691443339998,,,546.3106377500009,
stim_set/hard-244.png,stand.png,competition,4.0,stand,right,hard,570.6229318750012,570.6237739999998,577.6320730000008,incorrect,1.964798625000185,fall,left,3.0,584.9375745420002,,,,571.6352358340008,
stim_set/hard-vcom=3-7.png,stand.png,competition,2.25,fall,left,hard,,584.9381494589998,591.7903904590003,correct,1.8133765420006969,fall,left,5.0,596.9780997500002,,,,585.9487728340008,
stim_set/easy-411.png,stand.png,competition,2.25,stand,right,easy,,596.9785978750006,603.1570931670012,correct,1.1360437919993274,stand,right,4.0,607.6822325000012,,,,597.9889550839998,
stim_set/hard-vcom=2-20.png,fall.png,competition,3.75,fall,left,hard,,607.6828174590011,614.3668603750011,correct,1.6475386669990255,fall,left,4.0,623.8551555000013,,,,608.692797959,
stim_set/easy-vcom=2-94.png,stand.png,competition,4.0,fall,left,easy,,623.8557206250008,632.032048209001,correct,3.1376321660009125,fall,left,3.0,639.0155425840003,,,,624.8665814590004,
stim_set/hard-vcom=3-110.png,fall.png,competition,2.5,fall,left,hard,,639.0161320000008,645.4416606249998,correct,1.3986790420003672,fall,left,4.0,651.3261242500013,,,,640.0261980419999,
stim_set/hard-vcom=1-136.png,fall.png,competition,3.25,fall,left,hard,,651.3266847499998,658.008297792001,correct,1.6485649999995076,fall,left,4.0,663.6579522499998,,,,652.3368419590006,
stim_set/hard-vcom=2-100.png,stand.png,competition,2.75,fall,left,hard,,663.6585972499997,670.6318387919999,correct,1.9343722499997968,fall,left,3.0,676.7835785420011,,,,664.669173667,
stim_set/easy-vcom=3-15.png,stand.png,competition,3.0,fall,left,easy,,676.7842375,684.6568178750002,correct,2.833762124999339,fall,left,3.0,690.8886093340005,,,,677.7950273750013,
stim_set/easy-590.png,fall.png,competition,4.0,stand,right,easy,,690.8891707500006,697.1498550420001,correct,1.2229698339997412,stand,right,5.0,703.6167916670001,,,,691.8997612090005,
stim_set/hard-600.png,stand.png,competition,2.25,stand,right,hard,,703.6173379589999,711.4400637500003,incorrect,2.7896089999994733,fall,left,3.0,717.395501459001,,,,704.6284340420008,
stim_set/hard-40.png,fall.png,competition,2.25,stand,right,hard,,717.3960342500012,725.3485086250002,incorrect,2.911688042000605,fall,left,4.0,730.0180790840004,,,,718.4062801670008,
stim_set/easy-vcom=1-73.png,stand.png,competition,4.0,fall,left,easy,,730.018649959,738.3500143340007,correct,3.3042826670007344,fall,left,4.0,746.1773560420006,,,,731.0289983750008,
stim_set/hard-492.png,fall.png,competition,2.25,stand,right,hard,,746.1780981669998,756.2317873749997,incorrect,,,,,760.3902034170004,,,,747.1886027500003,
stim_set/hard-382.png,stand.png,competition,2.0,stand,right,hard,,760.3907656669999,769.0068386250005,incorrect,3.5838368749991787,fall,left,3.0,773.3512834169996,,,,761.4010851670009,
stim_set/hard-vcom=2-110.png,fall.png,competition,2.25,fall,left,hard,,773.3518051669998,781.1585987090002,correct,2.7750715420006604,fall,left,4.0,786.5456305839998,,,,774.3619167090001,
stim_set/hard-334.png,stand.png,competition,3.25,stand,right,hard,,786.5463710840013,793.0331551250001,incorrect,1.454282416998467,fall,left,4.0,799.2183005000006,,,,787.5576712500006,
stim_set/hard-49.png,fall.png,competition,3.75,stand,right,hard,,799.2189240839998,805.8080768750007,incorrect,1.5514251250006057,fall,left,4.0,812.6146372090005,,,,800.2291289590013,
stim_set/hard-vcom=4-142.png,fall.png,competition,2.75,fall,left,hard,,812.6151606250005,820.6502465840002,correct,3.001418625000952,fall,left,3.0,826.5656890839999,,,,813.6252667919998,
stim_set/hard-vcom=3-145.png,stand.png,competition,4.0,fall,left,hard,,826.5664207919998,835.0735373340013,correct,3.4741966660003527,fall,left,3.0,843.276779834001,,,,827.5770166670009,
stim_set/hard-345.png,fall.png,competition,3.25,stand,right,hard,,843.2774395420001,853.2567689590013,correct,4.940310874999341,stand,right,2.0,858.8258055839998,,,,844.2884293750012,
stim_set/hard-599.png,stand.png,competition,2.25,stand,right,hard,,858.8266046670013,865.4915316250008,incorrect,1.6370054170001822,fall,left,3.0,871.9104135420002,,,,859.8377594169998,
stim_set/hard-549.png,fall.png,competition,2.75,stand,right,hard,,871.9109454589998,880.2900185420003,incorrect,3.339489583000613,fall,left,3.0,887.7350914590005,,,,872.9210575420003,
stim_set/hard-177.png,stand.png,competition,3.75,stand,right,hard,,887.7356512090008,896.7983187500013,incorrect,4.029597374999867,fall,left,3.0,903.4386192090004,,,,888.7466139999997,
stim_set/easy-vcom=1-145.png,fall.png,competition,2.5,fall,left,easy,,903.4391405839997,909.6400250839996,correct,1.1606592499992985,fall,left,4.0,914.5878304590004,,,,904.4492339589997,
stim_set/hard-214.png,stand.png,competition,2.0,stand,right,hard,,914.5884507500014,921.6749224169998,incorrect,2.048713333000705,fall,left,4.0,925.9190264589996,,,,915.5989962090007,
stim_set/easy-538.png,fall.png,competition,2.5,stand,right,easy,,925.9197570840006,932.7499327090007,correct,1.7991650419990035,stand,right,4.0,938.2838518750012,,,,926.9296910419998,
stim_set/hard-vcom=4-75.png,stand.png,competition,3.25,fall,left,hard,,938.2844026250003,947.2650152090007,correct,3.9387153329989815,fall,left,3.0,955.6864811249997,,,,939.2947703340013,
stim_set/hard-vcom=3-82.png,fall.png,competition,2.25,fall,left,hard,,955.6870237090005,964.9399962500012,correct,4.212212792001083,fall,left,4.0,969.7218247920007,,,,956.6974282919999,
stim_set/hard-570.png,stand.png,competition,2.0,stand,right,hard,,969.7224112090007,979.0732964590005,incorrect,4.307466165999358,fall,left,3.0,983.5844502500003,,,,970.7331052500012,
stim_set/hard-566.png,fall.png,competition,3.75,stand,right,hard,,983.585216042,991.464759167,incorrect,2.835798166999666,fall,left,3.0,998.7918829589997,,,,984.5956875419996,
stim_set/hard-vcom=3-142.png,stand.png,competition,2.75,fall,left,hard,,998.7926537920011,1007.5078235420006,correct,3.6769858749994455,fall,left,3.0,1014.4703127499997,,,,999.8039987499997,
stim_set/easy-vcom=3-38.png,stand.png,competition,2.5,fall,left,easy,,1014.4709796250007,1023.1828775419999,correct,3.674678958001096,fall,left,3.0,1028.804075084001,,,,1015.4817122920011,
stim_set/easy-77.png,fall.png,competition,2.0,stand,right,easy,,1028.8048228340012,1034.9163938340007,correct,1.0780594589996326,stand,right,4.0,1040.2490581250004,,,,1029.8153134590013,
stim_set/easy-vcom=2-20.png,fall.png,competition,3.0,fall,left,easy,,1040.249726,1048.4730687500014,correct,3.184620416999678,fall,left,4.0,1054.2401185840008,,,,1041.260402834001,
stim_set/hard-402.png,stand.png,competition,2.25,stand,right,hard,,1054.2406671670014,1062.839817917,incorrect,3.557159916999808,fall,left,3.0,1068.2013967090006,,,,1055.2508099170007,
stim_set/hard-369.png,fall.png,competition,3.0,stand,right,hard,,1068.2019652500003,1074.9230355420004,correct,1.6882898750009188,stand,right,2.0,1081.3524608750013,,,,1069.2124227500008,
stim_set/easy-344.png,fall.png,competition,3.25,stand,right,easy,,1081.3530013750003,1088.2480378750006,correct,1.8579382499992791,stand,right,4.0,1098.011106209,,,,1082.3630845839998,
stim_set/hard-391.png,stand.png,competition,3.25,stand,right,hard,,1098.0116297920013,1106.5398512500014,incorrect,3.4891777919983724,fall,left,3.0,1114.5101035000007,,,,1099.0227622090006,
stim_set/hard-132.png,fall.png,competition,2.75,stand,right,hard,,1114.5106692500012,1122.1813896250003,incorrect,2.6324026670008607,fall,left,4.0,1127.8932471670014,1127.8935849999998,,,1115.5208388339997,
stim_set/hard-410.png,stand.png,cooperation,3.75,stand,right,hard,2.6249999791616574e-06,0.0023487909984396538,8.034302499998375,correct,3.0122501670011843,stand,right,3,15.001045040999088,15.00169674999961,,,1.0182672499995533,
stim_set/hard-188.png,stand.png,competition,4.0,stand,right,hard,2.8750000637955964e-06,0.0023725829996692482,6.670030833000054,incorrect,1.6534526249997723,fall,left,4.0,17.49138524999944,17.491907749999882,,,1.0179587919992628,
