towers,bet,condition,iti,corr_choice,corr_key,difficulty,block_start,trial_start,stim_on,acc,rt,part_choice,part_key,confidence,trial_end,block_end,updated_score,condition_first,cue_on,condition_second
stim_set/hard-600.png,none.png,unmotivated,2.5,stand,right,hard,4.0000013541430235e-06,0.0028953340006410144,3.2385547919984674,correct,3.184339834006096,stand,right,5.0,11.38633587500226,,190.0,competition,,cooperation
stim_set/hard-vcom=4-147.png,none.png,unmotivated,2.25,fall,left,hard,,11.387787416999345,15.62184900000284,incorrect,4.17622187500092,stand,right,3.0,22.00792645900219,,400.0,,,
stim_set/easy-vcom=1-12.png,none.png,unmotivated,2.0,fall,left,easy,,22.008488416999175,24.779843500000425,correct,2.714253416997962,fall,left,5.0,30.692459208999928,,590.0,,,
stim_set/hard-492.png,none.png,unmotivated,2.0,stand,right,hard,,30.693075625000358,34.04868770900066,incorrect,3.303955125003996,fall,left,5.0,40.59164325000165,,,,,
stim_set/hard-vcom=2-137.png,none.png,unmotivated,3.0,fall,left,hard,,40.592374459003615,43.11495787499734,correct,2.4766143750021,fall,left,5.0,49.65277174999938,,,,,
stim_set/easy-vcom=2-147.png,none.png,unmotivated,3.25,fall,left,easy,,49.6532924589992,53.19662679199973,correct,3.488747124996735,fall,left,5.0,59.798008208999825,,,,,
stim_set/easy-vcom=1-73.png,none.png,unmotivated,2.5,fall,left,easy,,59.79855595900153,64.85479570899771,incorrect,,,,,70.61207137499878,,,,,
stim_set/easy-344.png,none.png,unmotivated,4.0,stand,right,easy,,70.61267091699847,73.32147179199819,correct,2.656330834004621,stand,right,5.0,80.87606816700281,,,,,
stim_set/easy-vcom=4-126.png,none.png,unmotivated,2.5,fall,left,easy,,80.87662908399943,82.37155699999856,incorrect,1.43746999999712,stand,right,5.0,88.31253045899939,,,,,
stim_set/hard-vcom=2-147.png,none.png,unmotivated,2.5,fall,left,hard,,88.31307916699734,92.24633991700102,correct,3.88683279099496,fall,left,5.0,97.31092841699864,,,,,
stim_set/hard-132.png,none.png,unmotivated,3.75,stand,right,hard,,97.3114800839976,98.9317107090028,incorrect,1.5721019170014188,fall,left,5.0,106.28209779199824,,,,,
stim_set/hard-vcom=3-7.png,none.png,unmotivated,2.75,fall,left,hard,,106.28261875000315,107.82130475000305,correct,1.4864442909965874,fall,left,5.0,113.3285426250004,,,,,
stim_set/hard-391.png,none.png,unmotivated,2.25,stand,right,hard,,113.32909291700344,114.93130541699793,incorrect,1.5543703750008715,fall,left,5.0,121.44132479200199,,,,,
stim_set/hard-402.png,none.png,unmotivated,2.5,stand,right,hard,,121.44191524999769,124.49798987500252,incorrect,3.0049198330016225,fall,left,5.0,129.94335766699805,,,,,
stim_set/easy-13.png,none.png,unmotivated,2.5,stand,right,easy,,129.94390512500104,132.1480067500015,correct,2.1510744159968453,stand,right,5.0,137.71890612500283,,,,,
stim_set/hard-367.png,none.png,unmotivated,2.5,stand,right,hard,,137.71964883399778,140.62300920899722,incorrect,2.854869541995868,fall,left,5.0,145.7752618340019,,,,,
stim_set/easy-vcom=2-20.png,none.png,unmotivated,2.25,fall,left,easy,,145.7758926250026,147.53807799999774,correct,1.7097678339996492,fall,left,5.0,152.34907662500336,,,,,
stim_set/hard-316.png,none.png,unmotivated,2.0,stand,right,hard,,152.3496055420037,155.93782312500116,correct,3.5351595000029192,stand,right,5.0,160.9217879170028,,,,,
stim_set/hard-82.png,none.png,unmotivated,3.75,stand,right,hard,,160.92233504199973,164.71269137500352,incorrect,3.7349283339935937,fall,left,4.0,172.54900725000337,,,,,
stim_set/hard-564.png,none.png,unmotivated,3.75,stand,right,hard,,172.5497345839976,174.0378356669971,incorrect,1.4325514579977607,fall,left,5.0,180.97878241699797,,,,,
stim_set/hard-vcom=3-142.png,none.png,unmotivated,3.25,fall,left,hard,,180.979390792003,184.59609770899985,incorrect,3.5597457499970915,stand,right,4.0,191.5174557499995,,,,,
stim_set/hard-566.png,none.png,unmotivated,3.75,stand,right,hard,,191.51810645899968,193.046071124998,incorrect,1.4708206669965875,fall,left,5.0,199.4408483340012,,,,,
stim_set/hard-280.png,none.png,unmotivated,2.25,stand,right,hard,,199.4414336670016,201.57319024999745,correct,2.079566667001928,stand,right,5.0,206.87775025000155,,,,,
stim_set/hard-vcom=3-145.png,none.png,unmotivated,2.75,fall,left,hard,,206.87840074999986,210.0876930000013,correct,3.1628819999968982,fall,left,4.0,217.2857025839985,,,,,
stim_set/easy-vcom=2-94.png,none.png,unmotivated,2.75,fall,left,easy,,217.28625154199835,219.62104566700143,incorrect,2.2826017499974114,stand,right,3.0,224.9768807090004,,,,,
stim_set/hard-vcom=4-80.png,none.png,unmotivated,3.75,fall,left,hard,,224.97745083399784,227.3960733339991,correct,2.361789709000732,fall,left,5.0,234.35500850000244,,,,,
stim_set/hard-599.png,none.png,unmotivated,3.0,stand,right,hard,,234.35554670899728,238.21256279200318,correct,3.811466457998904,stand,right,4.0,244.40407516700358,,,,,
stim_set/hard-182.png,none.png,unmotivated,4.0,stand,right,hard,,244.4046161669976,246.61276662500322,incorrect,2.1615145420000768,fall,left,5.0,253.4978931669976,,,,,
stim_set/hard-570.png,none.png,unmotivated,2.25,stand,right,hard,,253.49850504200003,255.10433449999985,incorrect,1.5490072079992387,fall,left,5.0,260.42867520899745,,,,,
stim_set/easy-vcom=4-69.png,none.png,unmotivated,2.25,fall,left,easy,,260.42921316700085,262.04604279199697,incorrect,1.5610858329964683,stand,right,5.0,266.64410987500014,,,,,
stim_set/easy-280.png,none.png,unmotivated,3.0,stand,right,easy,,266.64472312499856,267.97280991700245,correct,1.2796459999954095,stand,right,5.0,274.23585804199683,,,,,
stim_set/hard-2.png,none.png,unmotivated,2.75,stand,right,hard,,274.23658295899804,275.58758804199897,incorrect,1.296257958994829,fall,left,5.0,280.6721807499998,,,,,
stim_set/hard-vcom=2-100.png,none.png,unmotivated,3.25,fall,left,hard,,280.672779499997,282.19756208400213,correct,1.4763622919999762,fall,left,5.0,288.2450067919999,,,,,
stim_set/hard-177.png,none.png,unmotivated,2.0,stand,right,hard,,288.24564850000024,289.8042961669998,incorrect,1.51183454200509,fall,left,5.0,294.1455287499994,,,,,
stim_set/hard-244.png,none.png,unmotivated,3.25,stand,right,hard,,294.14609283400205,295.77237262499693,correct,1.5742241249972722,stand,right,5.0,301.73308429199824,,,,,
stim_set/easy-538.png,none.png,unmotivated,2.5,stand,right,easy,,301.7336427089976,303.6207985000001,correct,1.8363898340030569,stand,right,5.0,308.4222360420026,,,,,
stim_set/easy-vcom=3-15.png,none.png,unmotivated,2.25,fall,left,easy,,308.42274999999785,310.43940520899923,incorrect,1.9676923329971032,stand,right,4.0,317.04053541699983,,,,,
stim_set/easy-vcom=1-145.png,none.png,unmotivated,3.75,fall,left,easy,,317.0411749170016,318.82903670900123,correct,1.7339596669989987,fall,left,5.0,324.8883259590002,,,,,
stim_set/hard-vcom=4-92.png,none.png,unmotivated,2.75,fall,left,hard,,324.88885529200337,326.6641929999969,correct,1.7230546670034528,fall,left,5.0,332.96149329200125,,,,,
stim_set/easy-vcom=1-87.png,none.png,unmotivated,3.0,fall,left,easy,,332.9620538750023,334.88731895900133,incorrect,1.8696462500010969,stand,right,5.0,340.361379916998,340.36170262499945,,,,
stim_set/easy-vcom=3-142.png,none.png,unmotivated,2.75,fall,left,easy,346.46496183399717,346.4657317500023,349.23914166699984,incorrect,2.722998874996847,stand,right,3.0,355.305061209001,,,,,
stim_set/easy-590.png,none.png,unmotivated,2.5,stand,right,easy,,355.30579687499994,356.4205571670027,correct,1.057345790999534,stand,right,5.0,361.4549129590014,,,,,
stim_set/hard-78.png,none.png,unmotivated,2.25,stand,right,hard,,361.45548850000336,363.1559892919977,incorrect,1.6503818330020297,fall,left,5.0,367.71568125000334,,,,,
stim_set/hard-214.png,none.png,unmotivated,3.25,stand,right,hard,,367.71627858399734,369.6122776249977,incorrect,1.8391499999997905,fall,left,3.0,376.2467447919989,,,,,
stim_set/hard-49.png,none.png,unmotivated,2.25,stand,right,hard,,376.2472885000025,378.0205165840016,incorrect,1.714917917001003,fall,left,4.0,383.7337927089975,,,,,
stim_set/hard-441.png,none.png,unmotivated,2.5,stand,right,hard,,383.73434483400337,384.9804664589973,correct,1.2004171250009676,stand,right,5.0,389.9344934170003,,,,,
stim_set/hard-369.png,none.png,unmotivated,2.0,stand,right,hard,,389.935042416997,391.13008329200244,correct,1.1538426250044722,stand,right,5.0,396.05036924999877,,,,,
stim_set/hard-345.png,none.png,unmotivated,2.5,stand,right,hard,,396.05090187500167,397.8972961249965,correct,1.7990760840039002,stand,right,5.0,403.44619300000335,,,,,
stim_set/easy-vcom=3-38.png,none.png,unmotivated,2.5,fall,left,easy,,403.4467422919988,406.372327709003,incorrect,2.8733358339959523,stand,right,4.0,412.06364991699957,,,,,
stim_set/hard-vcom=2-16.png,none.png,unmotivated,2.5,fall,left,hard,,412.06420154200174,413.938754625,incorrect,1.8219939170012367,stand,right,4.0,419.39035720899847,,,,,
stim_set/easy-vcom=3-74.png,none.png,unmotivated,2.25,fall,left,easy,,419.39092183399765,421.32888074999937,correct,1.882050749998598,fall,left,3.0,425.88374712500087,,,,,
stim_set/easy-vcom=2-3.png,none.png,unmotivated,4.0,fall,left,easy,,425.8842409589997,427.03901237499673,incorrect,1.1045402500021737,stand,right,5.0,433.8414655419983,,,,,
stim_set/hard-vcom=4-75.png,none.png,unmotivated,2.5,fall,left,hard,,433.84200958399737,435.4953435839998,correct,1.5972563750037807,fall,left,5.0,440.5258955000026,,,,,
stim_set/hard-vcom=3-34.png,none.png,unmotivated,2.0,fall,left,hard,,440.5264318749978,443.08053945899877,correct,2.5010680830018828,fall,left,3.0,447.4579858750003,,,,,
stim_set/easy-164.png,none.png,unmotivated,4.0,stand,right,easy,,447.4586374170031,448.55358770900057,correct,1.0383037080027862,stand,right,5.0,455.43457708400086,,,,,
stim_set/hard-382.png,none.png,unmotivated,2.75,stand,right,hard,,455.43516754199663,458.1221812500008,correct,2.6459064580049017,stand,right,3.0,463.87220633400284,,,,,
stim_set/hard-vcom=1-130.png,none.png,unmotivated,2.25,fall,left,hard,,463.872738459002,466.1369992089967,correct,2.2122423330001766,fall,left,3.0,472.5245508750013,,,,,
stim_set/easy-411.png,none.png,unmotivated,4.0,stand,right,easy,,472.52504704199964,474.2300184170017,correct,1.6535097090018098,stand,right,4.0,483.02629783400334,,,,,
stim_set/hard-40.png,none.png,unmotivated,3.0,stand,right,hard,,483.0268341670017,485.3052880000032,incorrect,2.2276436669999384,fall,left,3.0,491.4662924590012,,,,,
stim_set/hard-vcom=4-139.png,none.png,unmotivated,4.0,fall,left,hard,,491.4668439590023,493.8387814169982,incorrect,2.3241667090042037,stand,right,5.0,501.67583479199686,,,,,
stim_set/hard-vcom=1-30.png,none.png,unmotivated,3.75,fall,left,hard,,501.6763575419973,504.3868004999968,incorrect,2.6597715000025346,stand,right,3.0,511.83279429200053,,,,,
stim_set/hard-vcom=3-82.png,none.png,unmotivated,2.25,fall,left,hard,,511.8334025419972,516.0535547920008,incorrect,4.165476457994373,stand,right,3.0,521.6923734590018,,,,,
stim_set/hard-321.png,none.png,unmotivated,2.25,stand,right,hard,,521.6929236249998,523.3785972920014,incorrect,1.6337359579993065,fall,left,5.0,528.4038166669998,,,,,
stim_set/hard-vcom=2-20.png,none.png,unmotivated,2.25,fall,left,hard,,528.404446458997,530.7801786249984,incorrect,2.324635000004492,stand,right,4.0,535.7155903750026,,,,,
stim_set/hard-vcom=1-95.png,none.png,unmotivated,2.0,fall,left,hard,,535.7161460420031,538.3533634589985,incorrect,2.5849129999987785,stand,right,3.0,542.6736010000022,,,,,
stim_set/hard-vcom=4-23.png,none.png,unmotivated,2.5,fall,left,hard,,542.674145459001,544.5616007089993,incorrect,1.8355456659992344,stand,right,4.0,549.6862322919986,,,,,
stim_set/hard-334.png,none.png,unmotivated,2.0,stand,right,hard,,549.6868083340014,551.504440292003,correct,1.7720972499955678,stand,right,5.0,555.9374994169992,,,,,
stim_set/hard-14.png,none.png,unmotivated,3.25,stand,right,hard,,555.9381639999991,557.2550665419985,correct,1.275507500002277,stand,right,5.0,562.8927659999972,,,,,
stim_set/hard-vcom=1-136.png,none.png,unmotivated,2.5,fall,left,hard,,562.8933448340032,564.6282909169968,correct,1.6825123329981584,fall,left,5.0,569.4299599169972,,,,,
stim_set/hard-vcom=3-110.png,none.png,unmotivated,3.0,fall,left,hard,,569.4304730419972,570.7467196669968,incorrect,1.2744795830003568,stand,right,5.0,576.370372833997,,,,,
stim_set/hard-549.png,none.png,unmotivated,3.25,stand,right,hard,,576.3710341670013,578.7365651250002,correct,2.3116682499967283,stand,right,3.0,585.4045131669991,,,,,
stim_set/hard-vcom=1-3.png,none.png,unmotivated,2.75,fall,left,hard,,585.4051210839971,587.0303734999981,correct,1.5767737089990987,fall,left,5.0,592.1271080840015,,,,,
stim_set/hard-vcom=2-110.png,none.png,unmotivated,3.0,fall,left,hard,,592.1276630420034,593.6865851670009,correct,1.507758667001326,fall,left,5.0,599.4650132500027,,,,,
stim_set/hard-7.png,none.png,unmotivated,2.25,stand,right,hard,,599.4656333750028,601.6966729589985,incorrect,2.17830829200102,fall,left,5.0,606.6113226669986,,,,,
stim_set/hard-21.png,none.png,unmotivated,4.0,stand,right,hard,,606.6118797090021,608.7131539999973,incorrect,2.0546977080011857,fall,left,5.0,615.5606215419975,,,,,
stim_set/hard-vcom=4-142.png,none.png,unmotivated,4.0,fall,left,hard,,615.5612509999993,618.6030658750024,incorrect,2.9887615000043297,stand,right,3.0,625.8582251670014,,,,,
stim_set/hard-91.png,none.png,unmotivated,2.25,stand,right,hard,,625.8587247090036,629.1799185420023,incorrect,3.27181891699729,fall,left,5.0,633.7478427090027,,,,,
stim_set/easy-77.png,none.png,unmotivated,3.0,stand,right,easy,,633.7483964999992,635.0948678749992,correct,1.2941795840015402,stand,right,5.0,640.6646420000034,,,,,
stim_set/easy-vcom=4-19.png,none.png,unmotivated,3.25,fall,left,easy,,640.6653787920003,642.2214665840003,incorrect,1.5043325830047252,stand,right,5.0,648.3147833339973,,,,,
stim_set/hard-vcom=1-50.png,none.png,unmotivated,3.75,fall,left,hard,,648.3155303750027,650.0615265840024,incorrect,1.689123957999982,stand,right,3.0,656.9760146249972,656.9763410000014,,,,
stim_set/easy-vcom=2-20.png,stand.png,cooperation,4.0,fall,left,easy,0.00011679100862238556,0.0006732080073561519,8.521254207997117,incorrect,3.4723119160044007,stand,right,3,15.715940791007597,,,,1.0128493750089547,
stim_set/hard-570.png,stand.png,cooperation,2.0,stand,right,hard,,15.716495333006606,24.8982578330033,incorrect,4.137447000000975,fall,left,3,30.075316832997487,,,,16.727118249997147,
stim_set/hard-vcom=3-110.png,stand.png,cooperation,2.0,fall,left,hard,,30.075876832997892,37.697948458007886,correct,2.588226958003361,fall,left,4,43.1008291659964,,,,31.08687949999876,
stim_set/hard-600.png,fall.png,cooperation,3.0,stand,right,hard,,43.10143245800282,51.14818133300287,incorrect,3.0118413330055773,fall,left,3,57.24272429100529,,,,44.11264329100959,
stim_set/hard-244.png,stand.png,cooperation,2.5,stand,right,hard,,57.2433027500083,64.40831716600223,correct,2.1257702500006417,stand,right,4,70.67176279099658,,,,58.25350479100598,
stim_set/easy-vcom=1-73.png,stand.png,cooperation,2.5,fall,left,easy,,70.67231837500003,77.87458754100953,incorrect,2.173097292004968,stand,right,3,83.30258029099787,,,,71.68258449999848,
stim_set/easy-vcom=3-15.png,fall.png,cooperation,3.0,fall,left,easy,,83.30313691600168,90.1062525830057,incorrect,1.7642724170000292,stand,right,4,96.20255195800564,,,,84.31272304100276,
stim_set/hard-vcom=3-145.png,stand.png,cooperation,3.75,fall,left,hard,,96.20312766599818,103.93118729100388,incorrect,2.694652042002417,stand,right,3,111.06634220799606,,,,97.2133385000052,
stim_set/easy-vcom=3-74.png,fall.png,cooperation,2.25,fall,left,easy,,111.06690800000797,118.4980138749961,incorrect,2.3878083750023507,stand,right,4,123.81477595800243,,,,112.0774410830054,
stim_set/easy-77.png,fall.png,cooperation,2.5,stand,right,easy,,123.81550779100507,130.2144943750027,correct,1.3594010829983745,stand,right,5,135.65458537499944,,,,124.82555612499709,
stim_set/easy-538.png,stand.png,cooperation,2.5,stand,right,easy,,135.65530512500845,141.9663972910057,correct,1.277266042001429,stand,right,5,147.30206504100352,,,,136.66566949999833,
stim_set/hard-vcom=3-34.png,fall.png,cooperation,3.25,fall,left,hard,,147.30262245800986,156.01646554100444,incorrect,3.6741853340063244,stand,right,3,162.43803254100203,,,,148.31263225000293,
stim_set/hard-vcom=4-139.png,stand.png,cooperation,2.75,fall,left,hard,,162.438579958005,169.51441466600227,incorrect,2.0359632920008153,stand,right,4,175.4978625000076,,,,163.44919524999568,
stim_set/easy-13.png,fall.png,cooperation,3.25,stand,right,easy,,175.49861395799962,182.59166641600314,correct,2.053327417001128,stand,right,5,189.44574529099918,,,,176.50888891599607,
stim_set/hard-280.png,stand.png,cooperation,3.25,stand,right,hard,,189.44655600000988,196.07252158300253,correct,1.582080667008995,stand,right,5,202.3324185829988,,,,190.4569644160074,
stim_set/hard-599.png,fall.png,cooperation,2.0,stand,right,hard,,202.33305054099765,209.05575483299617,correct,1.6885578329965938,stand,right,5,213.53841416600335,,,,203.34365100000286,
stim_set/hard-402.png,fall.png,cooperation,3.75,stand,right,hard,,213.53897216600308,222.92408308300946,correct,4.347091875009937,stand,right,3,230.81753662500705,,,,214.54928862499946,
stim_set/easy-vcom=2-147.png,fall.png,cooperation,3.0,fall,left,easy,,230.81808358299895,239.2972320830013,correct,3.4371920420089737,fall,left,3,245.51526116600144,,,,231.82866962499975,
stim_set/hard-2.png,stand.png,cooperation,3.25,stand,right,hard,,245.51602741600072,252.09718058300496,correct,1.5381955000048038,stand,right,5,258.26726258300187,,,,246.52638554100122,
stim_set/hard-566.png,fall.png,cooperation,3.25,stand,right,hard,,258.2678708750027,265.22226604100433,correct,1.9101167919870932,stand,right,3,271.741657999999,,,,259.2776849579968,
stim_set/easy-590.png,fall.png,cooperation,4.0,stand,right,easy,,271.74225791600475,278.0142293329991,correct,1.2339712089888053,stand,right,5,285.12276204100635,,,,272.75227741600247,
stim_set/easy-vcom=4-126.png,stand.png,cooperation,2.5,fall,left,easy,,285.1233082079998,291.2804172909964,incorrect,1.1126370420097373,stand,right,5,296.41419887500524,,,,286.1341140000004,
stim_set/easy-vcom=2-94.png,stand.png,cooperation,4.0,fall,left,easy,,296.414741665998,304.8486211660056,incorrect,3.3987727500061737,stand,right,5,311.24221758299973,,,,297.4256674579956,
stim_set/hard-vcom=2-147.png,fall.png,cooperation,2.5,fall,left,hard,,311.24287020800693,321.28875487500045,incorrect,,,,,326.71508904099755,,,,312.2531907500088,
stim_set/easy-411.png,stand.png,cooperation,2.0,stand,right,easy,,326.7156424160057,333.0220312500023,correct,1.262471291993279,stand,right,5,337.93791775000864,,,,327.72601120799663,
stim_set/hard-vcom=3-7.png,fall.png,cooperation,2.75,fall,left,hard,,337.9384690410079,346.4636704160075,incorrect,3.484606415993767,stand,right,3,352.81728591599676,,,,338.94877829100005,
stim_set/hard-14.png,fall.png,cooperation,2.5,stand,right,hard,,352.8178648750036,359.16355308299535,correct,1.3126382500049658,stand,right,5,364.47756066599686,,,,353.8278770409961,
stim_set/hard-49.png,stand.png,cooperation,3.0,stand,right,hard,,364.478140332998,372.3549967910076,incorrect,2.8323012499895412,fall,left,4,378.4975930829969,,,,365.48837537500367,
stim_set/hard-82.png,fall.png,cooperation,2.25,stand,right,hard,,378.4981544159964,384.71484654099913,correct,1.1790544169925852,stand,right,5,389.9237505830097,,,,379.50870620799833,
stim_set/hard-492.png,stand.png,cooperation,2.25,stand,right,hard,,389.9243332909973,397.83010279100563,incorrect,2.864389292008127,fall,left,3,403.15623074999894,,,,390.93519925000146,
stim_set/hard-345.png,stand.png,cooperation,2.25,stand,right,hard,,403.1567645830073,409.43011662500794,correct,1.233886000001803,stand,right,5,414.09919366599934,,,,404.1670025830099,
stim_set/hard-40.png,fall.png,cooperation,3.0,stand,right,hard,,414.09975529099756,422.4149282910075,incorrect,3.2779652919998625,fall,left,3,428.6337670409994,,,,415.10970475000795,
stim_set/easy-vcom=2-3.png,stand.png,cooperation,3.75,fall,left,easy,,428.63434050000797,435.0631179159973,incorrect,1.386365250000381,stand,right,5,441.7346704579977,,,,429.6452852910006,
stim_set/hard-vcom=1-50.png,stand.png,cooperation,4.0,fall,left,hard,,441.73520650000137,448.97354154099594,correct,2.198509916997864,fall,left,3,456.11543879100645,,,,442.7459152500087,
stim_set/hard-vcom=1-30.png,fall.png,cooperation,2.5,fall,left,hard,,456.1159655829979,463.8048156660079,correct,2.650116250006249,fall,left,3,469.28491820799536,,,,457.12641437500133,
stim_set/hard-369.png,stand.png,cooperation,2.5,stand,right,hard,,469.2854809160053,476.7047120000061,correct,2.3859965829906287,stand,right,3,481.9092471250042,,,,470.29576783299854,
stim_set/hard-vcom=1-3.png,stand.png,cooperation,2.25,fall,left,hard,,481.9097985410044,488.7130137500062,correct,1.7630022499943152,fall,left,3,493.9148105409986,,,,482.92043445800664,
stim_set/easy-vcom=4-69.png,fall.png,cooperation,4.0,fall,left,easy,,493.9153708750091,500.22125691600377,incorrect,1.2635054169950308,stand,right,5,507.62591225000506,,,,494.92551183300384,
stim_set/easy-344.png,stand.png,cooperation,2.75,stand,right,easy,,507.62646862500696,513.8296841249976,correct,1.1649150419980288,stand,right,5,519.6148202500044,,,,508.6369187500095,
stim_set/hard-564.png,fall.png,cooperation,2.25,stand,right,hard,,519.6154589579965,526.4462251250079,incorrect,1.7875070000009146,fall,left,3,531.8123499159992,531.8126762500033,,,520.626578166004,
stim_set/hard-vcom=3-142.png,stand.png,cooperation,4.0,fall,left,hard,534.128753958008,534.1295438750094,541.8879412910028,incorrect,2.712791375000961,stand,right,4,548.9049071659974,,,,535.141507791006,
stim_set/hard-382.png,stand.png,cooperation,3.75,stand,right,hard,,548.905628499997,556.5045162909955,correct,2.5645947080047335,stand,right,3,562.8863872079964,,,,549.9162387499964,
stim_set/hard-vcom=4-75.png,fall.png,cooperation,2.0,fall,left,hard,,562.8869166250079,571.7376981660054,incorrect,3.8079434579994995,stand,right,4,576.9299646660074,,,,563.8969003750099,
stim_set/hard-321.png,fall.png,cooperation,2.25,stand,right,hard,,576.9305137080082,583.446106250005,incorrect,1.4751359579968266,fall,left,3,588.7883497910079,,,,577.9411920830025,
stim_set/hard-vcom=2-20.png,stand.png,cooperation,2.0,fall,left,hard,,588.7888957499963,595.7560907080042,incorrect,1.9282970000058413,stand,right,3,601.6820452910033,,,,589.799824916001,
stim_set/hard-vcom=4-23.png,fall.png,cooperation,3.0,fall,left,hard,,601.6825927500031,608.6792657909973,incorrect,1.956983083000523,stand,right,5,614.544982833002,,,,602.6927782499988,
stim_set/hard-vcom=1-136.png,stand.png,cooperation,2.75,fall,left,hard,,614.5455205000035,623.6707385409973,incorrect,4.085764625007869,stand,right,5,630.1835503750044,,,,615.5559883329988,
stim_set/hard-vcom=1-95.png,fall.png,cooperation,2.5,fall,left,hard,,630.1840456250065,637.8374658329994,incorrect,2.6141536249924684,stand,right,4,643.9895505830063,,,,631.1946037910093,
stim_set/easy-vcom=1-12.png,stand.png,cooperation,2.25,fall,left,easy,,643.9901202080073,651.9705607079959,correct,2.937553208001191,fall,left,4,657.2430042909982,,,,645.0005293330032,
stim_set/hard-vcom=2-137.png,stand.png,cooperation,2.25,fall,left,hard,,657.2435522910091,666.0707460830017,correct,3.789417958003469,fall,left,3,671.3063079160056,,,,658.254140791003,
stim_set/hard-vcom=2-16.png,fall.png,cooperation,2.25,fall,left,hard,,671.3069011659973,678.9467117080058,incorrect,2.600444999989122,stand,right,5,684.6998220000096,,,,672.3175831660046,
stim_set/hard-vcom=2-100.png,stand.png,cooperation,4.0,fall,left,hard,,684.7003663750074,692.4638684579986,correct,2.7275487089937087,fall,left,3,699.7137588750047,,,,685.7110223330092,
stim_set/hard-441.png,fall.png,cooperation,2.0,stand,right,hard,,699.7143831660069,706.1975994579989,correct,1.4494232090073638,stand,right,5,711.2639572080079,,,,700.7252256250067,
stim_set/hard-vcom=3-82.png,fall.png,cooperation,2.5,fall,left,hard,,711.2644898750004,720.2309503750002,incorrect,3.927572375003365,stand,right,3,726.7327725829964,,,,712.2750706250081,
stim_set/hard-549.png,stand.png,cooperation,2.25,stand,right,hard,,726.7333251250093,733.6621972499997,correct,1.8871029159927275,stand,right,5,738.9630077080074,,,,727.7442009579972,
stim_set/hard-391.png,stand.png,cooperation,2.75,stand,right,hard,,738.9635463750019,746.4370278749993,incorrect,2.434234041997115,fall,left,5,752.3587653330032,,,,739.9740100409981,
stim_set/hard-367.png,fall.png,cooperation,3.75,stand,right,hard,,752.3593107080087,760.3620609159989,correct,2.963378290995024,stand,right,4,767.3271849160083,,,,753.3694610410021,
stim_set/easy-vcom=4-19.png,fall.png,cooperation,2.25,fall,left,easy,,767.3277327499964,773.6785084160074,incorrect,1.3078775409958325,stand,right,5,779.4189600410027,,,,768.3381601250003,
stim_set/hard-vcom=4-80.png,stand.png,cooperation,4.0,fall,left,hard,,779.4196892909968,788.1635090409982,correct,3.7043452500074636,fall,left,3,795.1362642500026,,,,780.4304698750057,
stim_set/hard-vcom=4-142.png,fall.png,cooperation,2.25,fall,left,hard,,795.1368511250039,803.9617525829963,incorrect,3.7850837079895427,stand,right,3,809.4096066659986,,,,796.1469467499992,
stim_set/hard-21.png,fall.png,cooperation,2.5,stand,right,hard,,809.4101465410058,816.0367503330053,incorrect,1.5875333750009304,fall,left,3,821.4120601659961,,,,810.4208615410025,
stim_set/easy-vcom=3-38.png,stand.png,cooperation,2.25,fall,left,easy,,821.4127185410034,828.4299989580031,incorrect,1.9781487919972278,stand,right,5,834.1630415830004,,,,822.423794375005,
stim_set/easy-vcom=3-142.png,fall.png,cooperation,3.25,fall,left,easy,,834.1635867910081,842.7699815829983,incorrect,3.5647173749894137,stand,right,3,849.2259314999974,,,,835.173957166,
stim_set/easy-164.png,stand.png,cooperation,3.75,stand,right,easy,,849.2264822500001,855.5032122499979,correct,1.2319324169948231,stand,right,3,862.454444832998,,,,850.2370274999994,
stim_set/hard-316.png,fall.png,cooperation,2.5,stand,right,hard,,862.4551465410041,869.7032374999981,correct,2.2089085830084514,stand,right,3,875.2759033330076,,,,863.4651863750041,
stim_set/hard-vcom=4-92.png,stand.png,cooperation,2.25,fall,left,hard,,875.2765555829974,882.6966341250081,correct,2.3805940419988474,fall,left,3,887.7137013330066,,,,876.2871277079976,
stim_set/hard-78.png,fall.png,cooperation,2.25,stand,right,hard,,887.714241833004,894.1447332079988,incorrect,1.3893121250002878,fall,left,5,899.6184814580047,,,,888.7243912080012,
stim_set/easy-280.png,stand.png,cooperation,3.0,stand,right,easy,,899.6189750000049,905.7299727500067,correct,1.0759607500076527,stand,right,3,911.6558061249962,,,,900.6296324580035,
stim_set/easy-vcom=1-87.png,fall.png,cooperation,2.5,fall,left,easy,,911.6564072500041,917.9363314579969,incorrect,1.2374912079976639,stand,right,5,923.1467977499997,,,,912.6666231249983,
stim_set/easy-vcom=1-145.png,stand.png,cooperation,3.75,fall,left,easy,,923.1473711250001,929.3880073750042,correct,1.2034268749994226,fall,left,5,936.2376685409981,,,,924.1577692499995,
stim_set/hard-91.png,fall.png,cooperation,3.75,stand,right,hard,,936.2381917910097,945.7529607500037,correct,4.473633250003331,stand,right,3,952.3254092080024,,,,937.2485790000064,
stim_set/hard-182.png,stand.png,cooperation,2.75,stand,right,hard,,952.3259273330041,961.8447555830062,incorrect,4.484960917005083,fall,left,3,967.4369973330031,,,,953.3365687909973,
stim_set/hard-177.png,stand.png,cooperation,2.0,stand,right,hard,,967.4375488750084,977.2961258750001,correct,4.829248541005654,stand,right,3,982.3107567080006,,,,968.4480374999985,
stim_set/hard-132.png,fall.png,cooperation,3.0,stand,right,hard,,982.3113014580013,990.1610000410001,incorrect,2.810126833006507,fall,left,3,995.9508217080001,,,,983.3215809999965,
stim_set/hard-vcom=2-110.png,fall.png,cooperation,2.5,fall,left,hard,,995.9514066249976,1002.6135238749994,incorrect,1.627931291994173,stand,right,3,1007.9238540000079,,,,996.9612995409989,
stim_set/hard-214.png,fall.png,cooperation,3.25,stand,right,hard,,1007.924421290998,1015.9526860000042,correct,2.984754665987566,stand,right,3,1022.040537125009,,,,1008.9345152500027,
stim_set/hard-334.png,stand.png,cooperation,2.75,stand,right,hard,,1022.0411135000031,1028.404562458003,correct,1.3297094170120545,stand,right,5,1033.80483358301,,,,1023.051730541003,
stim_set/hard-vcom=1-130.png,fall.png,cooperation,2.5,fall,left,hard,,1033.8054852080095,1040.1775368329982,incorrect,1.3324732500041137,stand,right,5,1045.3706226659997,,,,1034.816166375007,
stim_set/hard-7.png,stand.png,cooperation,2.75,stand,right,hard,,1045.3712740830088,1053.277548958009,incorrect,2.8610452499997336,fall,left,5,1059.3590065000026,,,,1046.3821655409993,
stim_set/hard-vcom=4-147.png,fall.png,cooperation,3.25,fall,left,hard,,1059.3595557500084,1066.4045485000097,incorrect,2.0049441250012023,stand,right,4,1073.201633625009,1073.2019842500013,,,1060.3697390830057,
stim_set/easy-vcom=4-126.png,stand.png,competition,3.0,fall,left,easy,0.0001458749975427054,0.0007495419995393604,8.657610916998237,incorrect,3.6095843329967465,stand,right,4.0,15.093291708995821,,,,1.0135129999980563,
stim_set/easy-280.png,stand.png,competition,3.75,stand,right,easy,,15.093878833999042,21.474037624997443,correct,1.3399265830012157,stand,right,5.0,28.803486874996448,,,,16.1048402919987,
stim_set/hard-321.png,fall.png,competition,3.0,stand,right,hard,,28.80405549999705,35.66745524999715,incorrect,1.8282757909983047,fall,left,5.0,43.54414262499631,,,,29.81522591699468,
stim_set/hard-vcom=2-147.png,stand.png,competition,2.0,fall,left,hard,,43.544696166994974,50.57591341700026,incorrect,2.0009926249986165,stand,right,4.0,56.26129054199554,,,,44.555842499998114,
stim_set/hard-2.png,fall.png,competition,2.75,stand,right,hard,,56.26183399999718,64.44058054199559,correct,3.1369499590000487,stand,right,4.0,70.89983204199963,,,,57.27204579199315,
stim_set/easy-vcom=2-3.png,fall.png,competition,2.5,fall,left,easy,,70.90038804199867,78.0674642919912,incorrect,2.12916087499616,stand,right,5.0,84.0337517500011,,,,71.91068329199334,
stim_set/hard-21.png,stand.png,competition,2.25,stand,right,hard,,84.0343679590005,92.25705041699983,incorrect,3.1818810000113444,fall,left,3.0,98.85542624999651,,,,85.04548670900112,
stim_set/easy-vcom=1-12.png,fall.png,competition,2.75,fall,left,easy,,98.85605816700264,105.85732083399489,correct,1.9572071669972504,fall,left,4.0,112.73843145900172,,,,99.86689854199358,
stim_set/easy-vcom=2-147.png,stand.png,competition,2.5,fall,left,easy,,112.7390424999903,120.44864266699005,correct,2.6674868749978486,fall,left,4.0,125.98379991699768,,,,113.74982933400317,
stim_set/hard-367.png,fall.png,competition,3.0,stand,right,hard,,125.9843301669898,134.3070007089991,incorrect,3.2829231670039007,fall,left,3.0,140.4830300839967,,,,126.99454287499249,
stim_set/hard-vcom=4-80.png,stand.png,competition,2.5,fall,left,hard,,140.48371287499322,146.9500219170004,correct,1.4276788749994012,fall,left,5.0,152.72780066699488,,,,141.4943082090031,
stim_set/hard-82.png,stand.png,competition,2.25,stand,right,hard,,152.72837937499568,159.48174066698994,correct,1.7110623750049854,stand,right,5.0,164.5089533339924,,,,153.73870158399222,
stim_set/easy-vcom=4-19.png,fall.png,competition,2.0,fall,left,easy,,164.50948712500394,170.94003779199556,incorrect,1.3870912500133272,stand,right,5.0,176.1663639999897,,,,165.51966454199282,
stim_set/hard-7.png,fall.png,competition,2.0,stand,right,hard,,176.16699445899573,184.04828974998964,incorrect,2.836747875000583,fall,left,3.0,189.42014562500117,,,,177.17711279199284,
stim_set/easy-vcom=3-142.png,stand.png,competition,2.5,fall,left,easy,,189.42071449999642,197.67350620900103,incorrect,3.2104655000002817,stand,right,3.0,203.64995579200334,,,,190.4312817089958,
stim_set/easy-vcom=3-74.png,fall.png,competition,2.25,fall,left,easy,,203.65056466699752,211.35655762499664,incorrect,2.6630393329978688,stand,right,3.0,217.10217162499612,,,,204.66110591699544,
stim_set/hard-vcom=2-16.png,stand.png,competition,2.25,fall,left,hard,,217.10270483400382,224.96642299999075,incorrect,2.823734332996537,stand,right,4.0,230.6698570000008,,,,218.11318308400226,
stim_set/hard-vcom=4-139.png,fall.png,competition,2.5,fall,left,hard,,230.67039308400126,237.81481308399813,incorrect,2.105387834002613,stand,right,5.0,243.3592672090017,,,,231.68042341699768,
stim_set/hard-vcom=4-147.png,fall.png,competition,2.5,fall,left,hard,,243.3598075420014,252.32457762499692,incorrect,3.925696917009191,stand,right,5.0,258.4487875420018,,,,244.36991216699246,
stim_set/easy-vcom=1-87.png,stand.png,competition,2.5,fall,left,easy,,258.449310875003,265.7814795419981,incorrect,2.2877991670102347,stand,right,3.0,272.36081625000224,,,,259.4602083749924,
stim_set/easy-vcom=4-69.png,fall.png,competition,3.0,fall,left,easy,,272.3613634999929,278.76473887499014,incorrect,1.3605869590101063,stand,right,5.0,284.5789018749929,,,,273.37183858400385,
stim_set/hard-316.png,fall.png,competition,3.75,stand,right,hard,,284.5796361249959,292.75597141699114,correct,3.1374631250073435,stand,right,3.0,298.96925429199473,,,,285.5898029590025,
stim_set/easy-13.png,stand.png,competition,2.25,stand,right,easy,,298.9698945839918,305.47282083399483,correct,1.4583835000084946,stand,right,5.0,310.7490197919978,,,,299.9812223749905,
stim_set/hard-182.png,stand.png,competition,2.25,stand,right,hard,,310.749752083997,317.2978027499921,incorrect,1.514266375001171,fall,left,5.0,322.3970704999956,,,,311.76028937500087,
stim_set/hard-vcom=4-92.png,fall.png,competition,3.75,fall,left,hard,,322.3977527090028,329.7312395839981,correct,2.289514832998975,fall,left,4.0,337.0419489999913,,,,323.4082012919971,
stim_set/hard-564.png,stand.png,competition,4.0,stand,right,hard,,337.04249820898985,343.5081351669942,incorrect,1.4270950840000296,fall,left,5.0,350.6268885419995,,,,338.0533012919914,
stim_set/hard-vcom=1-3.png,stand.png,competition,2.5,fall,left,hard,,350.62740483399836,357.83112224999064,correct,2.1631825829972517,fall,left,4.0,363.84044087499205,,,,351.6379194170004,
stim_set/easy-164.png,fall.png,competition,2.5,stand,right,easy,,363.8411203750002,370.2227757499932,correct,1.3376358749956123,stand,right,5.0,376.09610987499764,,,,364.85159979200404,
stim_set/hard-vcom=1-50.png,fall.png,competition,3.75,fall,left,hard,,376.0966778339935,383.42280462499184,incorrect,2.2814616249961546,stand,right,4.0,390.96194737499167,,,,377.1071127089963,
stim_set/hard-vcom=1-95.png,fall.png,competition,2.25,fall,left,hard,,390.96248866699165,399.174649291992,incorrect,3.1771903329936317,stand,right,3.0,405.1178374169977,,,,391.9729841669905,
stim_set/hard-280.png,fall.png,competition,2.5,stand,right,hard,,405.1183915419969,412.0225542919943,correct,1.860803958988981,stand,right,5.0,418.39120604199707,,,,406.1284945840016,
stim_set/hard-14.png,stand.png,competition,4.0,stand,right,hard,,418.3917568339967,424.8144334590034,correct,1.388324375002412,stand,right,5.0,431.55499950000376,,,,419.40256237499125,
stim_set/hard-78.png,fall.png,competition,2.5,stand,right,hard,,431.5557032919896,438.030764583993,incorrect,1.4339106249972249,fall,left,4.0,444.37601920899766,,,,432.565900792004,
stim_set/hard-91.png,fall.png,competition,2.0,stand,right,hard,,444.3766355419939,451.7807380000013,correct,2.3619816249993164,stand,right,4.0,457.1156415839942,,,,445.3871622089937,
stim_set/hard-vcom=1-30.png,stand.png,competition,2.75,fall,left,hard,,457.1161793749925,466.6390611669922,correct,4.484432082987041,fall,left,4.0,472.4912022089993,,,,458.12680083399766,
stim_set/hard-vcom=2-137.png,fall.png,competition,3.0,fall,left,hard,,472.49175562500017,479.947453583998,incorrect,2.4174777080042986,stand,right,3.0,486.37162574999087,,,,473.50253250000236,
stim_set/hard-vcom=1-130.png,fall.png,competition,3.25,fall,left,hard,,486.37217516699457,493.53266079199966,incorrect,2.125693207999575,stand,right,4.0,500.1255419169902,,,,487.38235591699777,
stim_set/hard-vcom=4-23.png,stand.png,competition,3.25,fall,left,hard,,500.12610208400287,506.90582633399765,incorrect,1.739725499995984,stand,right,5.0,513.9983187920006,,,,501.1366477499978,
stim_set/hard-vcom=3-34.png,stand.png,competition,2.5,fall,left,hard,,513.9988569589914,521.340371333994,incorrect,2.301418082992313,stand,right,3.0,527.158613416992,,,,515.0097969170021,
stim_set/hard-441.png,fall.png,competition,4.0,stand,right,hard,,527.1591482090007,533.5155133340013,correct,1.3233150000014575,stand,right,5.0,540.5705871669925,540.5709239999996,,,528.1696472499898,
stim_set/hard-244.png,stand.png,competition,4.0,stand,right,hard,544.4329225419933,544.4336426669906,551.1988856249955,correct,1.7221951670071576,stand,right,5.0,558.2263224170018,,,,545.4477765839983,
stim_set/hard-vcom=3-7.png,stand.png,competition,2.25,fall,left,hard,,558.2270448339987,565.830359708998,correct,2.563552833002177,fall,left,3.0,571.2752481249918,,,,559.2372579999936,
stim_set/easy-411.png,stand.png,competition,2.25,stand,right,easy,,571.2757606249943,578.1985757919903,correct,1.8836954169964883,stand,right,5.0,583.5716440839897,,,,572.2864436249947,
stim_set/hard-vcom=2-20.png,fall.png,competition,3.75,fall,left,hard,,583.5721261250002,591.2151307919994,incorrect,2.6044473330111937,stand,right,5.0,598.1699791249994,,,,584.5824153339928,
stim_set/easy-vcom=2-94.png,stand.png,competition,4.0,fall,left,easy,,598.1705209170033,605.7970913750033,incorrect,2.5861259170051203,stand,right,5.0,612.7053001669993,,,,599.1814571669967,
stim_set/hard-vcom=3-110.png,fall.png,competition,2.5,fall,left,hard,,612.7059243749973,621.757050500004,correct,4.0221143329981714,fall,left,3.0,627.7757033340022,,,,613.7159264169895,
stim_set/hard-vcom=1-136.png,fall.png,competition,3.25,fall,left,hard,,627.7763275839969,636.1654252500011,correct,3.354177874993184,fall,left,3.0,642.7328464589955,,,,628.7864909589989,
stim_set/hard-vcom=2-100.png,stand.png,competition,2.75,fall,left,hard,,642.7333830839924,651.3135444170039,incorrect,3.539600417003385,stand,right,3.0,658.0417353749945,,,,643.7438182089973,
stim_set/easy-vcom=3-15.png,stand.png,competition,3.0,fall,left,easy,,658.0423814590032,664.4570165839978,incorrect,1.3786939580022592,stand,right,5.0,671.1483432090026,,,,659.0533714170015,
stim_set/easy-590.png,fall.png,competition,4.0,stand,right,easy,,671.1489052090037,677.5401072499952,correct,1.3517535829887493,stand,right,5.0,684.6808622919925,,,,672.1593084170017,
stim_set/hard-600.png,stand.png,competition,2.25,stand,right,hard,,684.6814863749896,692.7550281669974,incorrect,3.0384981669922126,fall,left,3.0,698.8060639169998,,,,685.6925363339979,
stim_set/hard-40.png,fall.png,competition,2.25,stand,right,hard,,698.8066135839908,707.5985231249942,incorrect,3.7543460830056574,fall,left,3.0,712.9160009589978,,,,699.8170380419907,
stim_set/easy-vcom=1-73.png,stand.png,competition,4.0,fall,left,easy,,712.9165658339917,719.9715575000009,incorrect,2.020889500010526,stand,right,3.0,726.8418329589913,,,,713.9276392500032,
stim_set/hard-492.png,fall.png,competition,2.25,stand,right,hard,,726.8424005839915,736.1465944169904,correct,4.2632698329980485,stand,right,3.0,741.7563112089991,,,,727.8526859999984,
stim_set/hard-382.png,stand.png,competition,2.0,stand,right,hard,,741.7568619999948,750.1298489170002,correct,3.339015374993324,stand,right,4.0,755.5470421670034,,,,742.7677164170018,
stim_set/hard-vcom=2-110.png,fall.png,competition,2.25,fall,left,hard,,755.5475940420001,763.6068167920021,incorrect,3.025192083994625,stand,right,3.0,769.0749441249936,,,,756.5576026670024,
stim_set/hard-334.png,stand.png,competition,3.25,stand,right,hard,,769.0755118749948,775.7714787500007,correct,1.6580989590001989,stand,right,4.0,782.3501957919943,,,,770.0862177090021,
stim_set/hard-49.png,fall.png,competition,3.75,stand,right,hard,,782.3507485000009,792.0795228749921,correct,4.6837057910015565,stand,right,4.0,799.7763418340038,,,,783.3610220419941,
stim_set/hard-vcom=4-142.png,fall.png,competition,2.75,fall,left,hard,,799.7770675420034,806.1546007500001,incorrect,1.3371084579994204,stand,right,4.0,813.1365721249895,,,,800.7874434999976,
stim_set/hard-vcom=3-145.png,stand.png,competition,4.0,fall,left,hard,,813.1372699170024,819.6545541669911,incorrect,1.4836005840043072,stand,right,5.0,826.970781875003,,,,814.1478121669934,
stim_set/hard-345.png,fall.png,competition,3.25,stand,right,hard,,826.9714677919983,833.2463986669901,correct,1.2348805839865236,stand,right,5.0,839.4519014589896,,,,827.9818279589963,
stim_set/hard-599.png,stand.png,competition,2.25,stand,right,hard,,839.4524619589937,846.4315463749954,correct,1.9501230419991766,stand,right,3.0,852.1720888749987,,,,840.4630082090007,
stim_set/hard-549.png,fall.png,competition,2.75,stand,right,hard,,852.1726359589958,858.9712359589903,correct,1.7573965830088127,stand,right,3.0,864.4391682089916,,,,853.1830064169917,
stim_set/hard-177.png,stand.png,competition,3.75,stand,right,hard,,864.4396865419984,874.2379135840021,correct,4.764014999993378,stand,right,3.0,882.1600173339975,,,,865.4505948750011,
stim_set/easy-vcom=1-145.png,fall.png,competition,2.5,fall,left,easy,,882.1605808339955,889.9979071669949,correct,2.800023832998704,fall,left,4.0,895.8393362499919,,,,883.1710597920027,
stim_set/hard-214.png,stand.png,competition,2.0,stand,right,hard,,895.839939958998,905.5377175839967,correct,4.654055625011097,stand,right,3.0,910.5686815419904,,,,896.8507607499922,
stim_set/easy-538.png,fall.png,competition,2.5,stand,right,easy,,910.5692274169996,917.2707389589923,correct,1.6643830000102753,stand,right,5.0,922.7168148749917,,,,911.5792852919984,
stim_set/hard-vcom=4-75.png,stand.png,competition,3.25,fall,left,hard,,922.717376583998,929.5559883340027,incorrect,1.8000443339988124,stand,right,4.0,936.0268320000032,,,,923.7277015000001,
stim_set/hard-vcom=3-82.png,fall.png,competition,2.25,fall,left,hard,,936.027367208997,943.8042002089933,correct,2.7343872909987117,fall,left,3.0,949.6757668339997,,,,937.0383340419941,
stim_set/hard-570.png,stand.png,competition,2.0,stand,right,hard,,949.676311874995,959.5290601669984,correct,4.808348582999315,stand,right,4.0,965.0900516249968,,,,950.6869965419901,
stim_set/hard-566.png,fall.png,competition,3.75,stand,right,hard,,965.0905972089968,973.5813045419928,correct,3.4504163749952568,stand,right,4.0,981.7840420839931,,,,966.101014,
stim_set/hard-vcom=3-142.png,stand.png,competition,2.75,fall,left,hard,,981.7845947919997,988.3872895840033,incorrect,1.5584358339983737,stand,right,4.0,994.2790149589999,,,,982.7954794169927,
stim_set/easy-vcom=3-38.png,stand.png,competition,2.5,fall,left,easy,,994.2795526249976,1001.0875054589997,incorrect,1.7644481669995002,stand,right,5.0,1006.7327763749927,,,,995.2900692089895,
stim_set/easy-77.png,fall.png,competition,2.0,stand,right,easy,,1006.7332964169908,1012.8623462919933,correct,1.0896113749913638,stand,right,5.0,1017.288115125004,,,,1007.7435874999936,
stim_set/easy-vcom=2-20.png,fall.png,competition,3.0,fall,left,easy,,1017.2887649589976,1024.8624216250028,incorrect,2.5344964170071758,stand,right,5.0,1031.2252128339896,,,,1018.2988988750003,
stim_set/hard-402.png,stand.png,competition,2.25,stand,right,hard,,1031.225745333999,1039.228837083996,correct,2.959936166997068,stand,right,3.0,1045.1237295419996,,,,1032.2368199170014,
stim_set/hard-369.png,fall.png,competition,3.0,stand,right,hard,,1045.1242746249918,1051.605915209002,correct,1.4526522500091232,stand,right,5.0,1057.7219127499993,,,,1046.1347173749964,
stim_set/easy-344.png,fall.png,competition,3.25,stand,right,easy,,1057.7225073750014,1064.2058913749934,correct,1.449455541005591,stand,right,5.0,1070.4990636669972,,,,1058.7327591670037,
stim_set/hard-391.png,stand.png,competition,3.25,stand,right,hard,,1070.4996535419923,1078.1386442090006,correct,2.604549666997628,stand,right,3.0,1084.3298763749915,,,,1071.5101677499915,
stim_set/hard-132.png,fall.png,competition,2.75,stand,right,hard,,1084.330453542003,1091.9038089169915,correct,2.5336275000008754,stand,right,3.0,1097.7752598340014,1097.7756714999996,,,1085.3407505840005,
stim_set/hard-410.png,stand.png,cooperation,3.75,stand,right,hard,2.7500063879415393e-06,0.002232333004940301,6.4525647920090705,correct,1.434196250003879,stand,right,5,13.823658749999595,13.824196417001076,,,1.0154902080103057,
stim_set/hard-188.png,stand.png,competition,4.0,stand,right,hard,3.083994670305401e-06,0.002264208997075912,8.785709708994546,incorrect,3.7718488340033214,fall,left,3.0,19.589039458995106,19.58958208399417,,,1.0166932919964893,
