towers,bet,condition,iti,corr_choice,corr_key,difficulty,block_start,trial_start,stim_on,acc,rt,part_choice,part_key,confidence,trial_end,block_end,updated_score,condition_first,cue_on
stim_set/hard-600.png,none.png,unmotivated,2.5,stand,right,hard,4.0000013541430235e-06,0.0028953340006410144,3.2385547919984674,correct,3.184339834006096,stand,right,5.0,11.38633587500226,,190.0,competition,
stim_set/hard-vcom=4-147.png,none.png,unmotivated,2.25,fall,left,hard,,11.387787416999345,15.62184900000284,incorrect,4.17622187500092,stand,right,3.0,22.00792645900219,,400.0,,
stim_set/easy-vcom=1-12.png,none.png,unmotivated,2.0,fall,left,easy,,22.008488416999175,24.779843500000425,correct,2.714253416997962,fall,left,5.0,30.692459208999928,,,,
stim_set/hard-492.png,none.png,unmotivated,2.0,stand,right,hard,,30.693075625000354,34.04868770900066,incorrect,3.3039551250039954,fall,left,5.0,40.59164325000165,,,,
stim_set/hard-vcom=2-137.png,none.png,unmotivated,3.0,fall,left,hard,,40.592374459003615,43.11495787499734,correct,2.4766143750021,fall,left,5.0,49.65277174999938,,,,
stim_set/easy-vcom=2-147.png,none.png,unmotivated,3.25,fall,left,easy,,49.6532924589992,53.19662679199973,correct,3.488747124996735,fall,left,5.0,59.798008208999825,,,,
stim_set/easy-vcom=1-73.png,none.png,unmotivated,2.5,fall,left,easy,,59.79855595900153,64.85479570899771,incorrect,,,,,70.61207137499878,,,,
stim_set/easy-344.png,none.png,unmotivated,4.0,stand,right,easy,,70.61267091699847,73.32147179199819,correct,2.656330834004621,stand,right,5.0,80.87606816700281,,,,
stim_set/easy-vcom=4-126.png,none.png,unmotivated,2.5,fall,left,easy,,80.87662908399943,82.37155699999856,incorrect,1.43746999999712,stand,right,5.0,88.31253045899939,,,,
stim_set/hard-vcom=2-147.png,none.png,unmotivated,2.5,fall,left,hard,,88.31307916699734,92.24633991700102,correct,3.8868327909949594,fall,left,5.0,97.31092841699864,,,,
stim_set/hard-132.png,none.png,unmotivated,3.75,stand,right,hard,,97.3114800839976,98.9317107090028,incorrect,1.5721019170014188,fall,left,5.0,106.28209779199824,,,,
stim_set/hard-vcom=3-7.png,none.png,unmotivated,2.75,fall,left,hard,,106.28261875000315,107.82130475000305,correct,1.4864442909965874,fall,left,5.0,113.3285426250004,,,,
stim_set/hard-391.png,none.png,unmotivated,2.25,stand,right,hard,,113.32909291700344,114.93130541699793,incorrect,1.5543703750008715,fall,left,5.0,121.44132479200199,,,,
stim_set/hard-402.png,none.png,unmotivated,2.5,stand,right,hard,,121.44191524999769,124.49798987500252,incorrect,3.0049198330016225,fall,left,5.0,129.94335766699805,,,,
stim_set/easy-13.png,none.png,unmotivated,2.5,stand,right,easy,,129.94390512500104,132.1480067500015,correct,2.1510744159968453,stand,right,5.0,137.71890612500283,,,,
stim_set/hard-367.png,none.png,unmotivated,2.5,stand,right,hard,,137.71964883399778,140.62300920899722,incorrect,2.854869541995868,fall,left,5.0,145.7752618340019,,,,
stim_set/easy-vcom=2-20.png,none.png,unmotivated,2.25,fall,left,easy,,145.7758926250026,147.53807799999774,correct,1.7097678339996492,fall,left,5.0,152.34907662500336,,,,
stim_set/hard-316.png,none.png,unmotivated,2.0,stand,right,hard,,152.3496055420037,155.93782312500116,correct,3.5351595000029192,stand,right,5.0,160.9217879170028,,,,
stim_set/hard-82.png,none.png,unmotivated,3.75,stand,right,hard,,160.92233504199973,164.71269137500352,incorrect,3.7349283339935937,fall,left,4.0,172.54900725000337,,,,
stim_set/hard-564.png,none.png,unmotivated,3.75,stand,right,hard,,172.5497345839976,174.0378356669971,incorrect,1.4325514579977607,fall,left,5.0,180.97878241699797,,,,
stim_set/hard-vcom=3-142.png,none.png,unmotivated,3.25,fall,left,hard,,180.979390792003,184.59609770899985,incorrect,3.5597457499970915,stand,right,4.0,191.5174557499995,,,,
stim_set/hard-566.png,none.png,unmotivated,3.75,stand,right,hard,,191.51810645899968,193.046071124998,incorrect,1.4708206669965875,fall,left,5.0,199.4408483340012,,,,
stim_set/hard-280.png,none.png,unmotivated,2.25,stand,right,hard,,199.44143366700158,201.57319024999745,correct,2.0795666670019277,stand,right,5.0,206.87775025000155,,,,
stim_set/hard-vcom=3-145.png,none.png,unmotivated,2.75,fall,left,hard,,206.87840074999986,210.0876930000013,correct,3.1628819999968982,fall,left,4.0,217.2857025839985,,,,
stim_set/easy-vcom=2-94.png,none.png,unmotivated,2.75,fall,left,easy,,217.28625154199835,219.62104566700143,incorrect,2.2826017499974114,stand,right,3.0,224.9768807090004,,,,
stim_set/hard-vcom=4-80.png,none.png,unmotivated,3.75,fall,left,hard,,224.97745083399784,227.3960733339991,correct,2.361789709000732,fall,left,5.0,234.35500850000244,,,,
stim_set/hard-599.png,none.png,unmotivated,3.0,stand,right,hard,,234.35554670899728,238.21256279200318,correct,3.811466457998904,stand,right,4.0,244.40407516700358,,,,
stim_set/hard-182.png,none.png,unmotivated,4.0,stand,right,hard,,244.4046161669976,246.61276662500316,incorrect,2.1615145420000768,fall,left,5.0,253.49789316699756,,,,
stim_set/hard-570.png,none.png,unmotivated,2.25,stand,right,hard,,253.49850504200003,255.10433449999985,incorrect,1.5490072079992387,fall,left,5.0,260.42867520899745,,,,
stim_set/easy-vcom=4-69.png,none.png,unmotivated,2.25,fall,left,easy,,260.42921316700085,262.04604279199697,incorrect,1.5610858329964683,stand,right,5.0,266.64410987500014,,,,
stim_set/easy-280.png,none.png,unmotivated,3.0,stand,right,easy,,266.64472312499856,267.97280991700245,correct,1.2796459999954095,stand,right,5.0,274.23585804199683,,,,
stim_set/hard-2.png,none.png,unmotivated,2.75,stand,right,hard,,274.23658295899804,275.58758804199897,incorrect,1.296257958994829,fall,left,5.0,280.6721807499998,,,,
stim_set/hard-vcom=2-100.png,none.png,unmotivated,3.25,fall,left,hard,,280.672779499997,282.19756208400213,correct,1.4763622919999762,fall,left,5.0,288.2450067919999,,,,
stim_set/hard-177.png,none.png,unmotivated,2.0,stand,right,hard,,288.24564850000024,289.8042961669998,incorrect,1.51183454200509,fall,left,5.0,294.1455287499994,,,,
stim_set/hard-244.png,none.png,unmotivated,3.25,stand,right,hard,,294.14609283400205,295.77237262499693,correct,1.5742241249972722,stand,right,5.0,301.73308429199824,,,,
stim_set/easy-538.png,none.png,unmotivated,2.5,stand,right,easy,,301.7336427089976,303.6207985000001,correct,1.836389834003057,stand,right,5.0,308.4222360420026,,,,
stim_set/easy-vcom=3-15.png,none.png,unmotivated,2.25,fall,left,easy,,308.42274999999785,310.43940520899923,incorrect,1.9676923329971032,stand,right,4.0,317.04053541699983,,,,
stim_set/easy-vcom=1-145.png,none.png,unmotivated,3.75,fall,left,easy,,317.0411749170016,318.82903670900123,correct,1.7339596669989987,fall,left,5.0,324.8883259590002,,,,
stim_set/hard-vcom=4-92.png,none.png,unmotivated,2.75,fall,left,hard,,324.88885529200337,326.6641929999969,correct,1.7230546670034528,fall,left,5.0,332.96149329200125,,,,
stim_set/easy-vcom=1-87.png,none.png,unmotivated,3.0,fall,left,easy,,332.9620538750023,334.88731895900133,incorrect,1.8696462500010969,stand,right,5.0,340.361379916998,340.36170262499945,,,
stim_set/easy-vcom=3-142.png,none.png,unmotivated,2.75,fall,left,easy,346.46496183399717,346.4657317500023,349.23914166699984,incorrect,2.722998874996847,stand,right,3.0,355.305061209001,,,,
stim_set/easy-590.png,none.png,unmotivated,2.5,stand,right,easy,,355.30579687499994,356.4205571670027,correct,1.057345790999534,stand,right,5.0,361.4549129590014,,,,
stim_set/hard-78.png,none.png,unmotivated,2.25,stand,right,hard,,361.45548850000336,363.1559892919977,incorrect,1.6503818330020297,fall,left,5.0,367.71568125000334,,,,
stim_set/hard-214.png,none.png,unmotivated,3.25,stand,right,hard,,367.7162785839973,369.6122776249977,incorrect,1.8391499999997905,fall,left,3.0,376.2467447919989,,,,
stim_set/hard-49.png,none.png,unmotivated,2.25,stand,right,hard,,376.2472885000025,378.0205165840016,incorrect,1.714917917001003,fall,left,4.0,383.7337927089975,,,,
stim_set/hard-441.png,none.png,unmotivated,2.5,stand,right,hard,,383.73434483400337,384.98046645899734,correct,1.2004171250009676,stand,right,5.0,389.9344934170003,,,,
stim_set/hard-369.png,none.png,unmotivated,2.0,stand,right,hard,,389.935042416997,391.13008329200244,correct,1.1538426250044722,stand,right,5.0,396.05036924999877,,,,
stim_set/hard-345.png,none.png,unmotivated,2.5,stand,right,hard,,396.05090187500167,397.8972961249965,correct,1.7990760840039002,stand,right,5.0,403.44619300000335,,,,
stim_set/easy-vcom=3-38.png,none.png,unmotivated,2.5,fall,left,easy,,403.4467422919988,406.372327709003,incorrect,2.8733358339959523,stand,right,4.0,412.06364991699957,,,,
stim_set/hard-vcom=2-16.png,none.png,unmotivated,2.5,fall,left,hard,,412.06420154200174,413.938754625,incorrect,1.8219939170012367,stand,right,4.0,419.39035720899847,,,,
stim_set/easy-vcom=3-74.png,none.png,unmotivated,2.25,fall,left,easy,,419.39092183399765,421.32888074999937,correct,1.8820507499985981,fall,left,3.0,425.88374712500087,,,,
stim_set/easy-vcom=2-3.png,none.png,unmotivated,4.0,fall,left,easy,,425.8842409589997,427.03901237499673,incorrect,1.1045402500021737,stand,right,5.0,433.8414655419983,,,,
stim_set/hard-vcom=4-75.png,none.png,unmotivated,2.5,fall,left,hard,,433.84200958399737,435.4953435839998,correct,1.5972563750037807,fall,left,5.0,440.5258955000026,,,,
stim_set/hard-vcom=3-34.png,none.png,unmotivated,2.0,fall,left,hard,,440.5264318749978,443.08053945899877,correct,2.5010680830018828,fall,left,3.0,447.4579858750003,,,,
stim_set/easy-164.png,none.png,unmotivated,4.0,stand,right,easy,,447.4586374170031,448.55358770900057,correct,1.0383037080027862,stand,right,5.0,455.43457708400086,,,,
stim_set/hard-382.png,none.png,unmotivated,2.75,stand,right,hard,,455.43516754199663,458.12218125000066,correct,2.6459064580049017,stand,right,3.0,463.87220633400284,,,,
stim_set/hard-vcom=1-130.png,none.png,unmotivated,2.25,fall,left,hard,,463.872738459002,466.13699920899666,correct,2.2122423330001766,fall,left,3.0,472.5245508750013,,,,
stim_set/easy-411.png,none.png,unmotivated,4.0,stand,right,easy,,472.52504704199964,474.2300184170017,correct,1.6535097090018098,stand,right,4.0,483.02629783400334,,,,
stim_set/hard-40.png,none.png,unmotivated,3.0,stand,right,hard,,483.0268341670017,485.3052880000032,incorrect,2.2276436669999384,fall,left,3.0,491.4662924590012,,,,
stim_set/hard-vcom=4-139.png,none.png,unmotivated,4.0,fall,left,hard,,491.4668439590023,493.8387814169982,incorrect,2.3241667090042033,stand,right,5.0,501.67583479199686,,,,
stim_set/hard-vcom=1-30.png,none.png,unmotivated,3.75,fall,left,hard,,501.6763575419973,504.3868004999968,incorrect,2.6597715000025346,stand,right,3.0,511.83279429200053,,,,
stim_set/hard-vcom=3-82.png,none.png,unmotivated,2.25,fall,left,hard,,511.8334025419972,516.0535547920008,incorrect,4.165476457994373,stand,right,3.0,521.6923734590018,,,,
stim_set/hard-321.png,none.png,unmotivated,2.25,stand,right,hard,,521.6929236249998,523.3785972920014,incorrect,1.6337359579993065,fall,left,5.0,528.4038166669998,,,,
stim_set/hard-vcom=2-20.png,none.png,unmotivated,2.25,fall,left,hard,,528.404446458997,530.7801786249984,incorrect,2.3246350000044917,stand,right,4.0,535.7155903750026,,,,
stim_set/hard-vcom=1-95.png,none.png,unmotivated,2.0,fall,left,hard,,535.7161460420031,538.3533634589985,incorrect,2.5849129999987785,stand,right,3.0,542.6736010000022,,,,
stim_set/hard-vcom=4-23.png,none.png,unmotivated,2.5,fall,left,hard,,542.674145459001,544.5616007089993,incorrect,1.8355456659992344,stand,right,4.0,549.6862322919986,,,,
stim_set/hard-334.png,none.png,unmotivated,2.0,stand,right,hard,,549.6868083340014,551.504440292003,correct,1.7720972499955678,stand,right,5.0,555.9374994169992,,,,
stim_set/hard-14.png,none.png,unmotivated,3.25,stand,right,hard,,555.9381639999991,557.2550665419985,correct,1.275507500002277,stand,right,5.0,562.8927659999972,,,,
stim_set/hard-vcom=1-136.png,none.png,unmotivated,2.5,fall,left,hard,,562.8933448340032,564.6282909169968,correct,1.6825123329981584,fall,left,5.0,569.4299599169972,,,,
stim_set/hard-vcom=3-110.png,none.png,unmotivated,3.0,fall,left,hard,,569.4304730419972,570.7467196669968,incorrect,1.2744795830003568,stand,right,5.0,576.370372833997,,,,
stim_set/hard-549.png,none.png,unmotivated,3.25,stand,right,hard,,576.3710341670013,578.7365651250002,correct,2.3116682499967283,stand,right,3.0,585.4045131669991,,,,
stim_set/hard-vcom=1-3.png,none.png,unmotivated,2.75,fall,left,hard,,585.4051210839971,587.0303734999981,correct,1.5767737089990987,fall,left,5.0,592.1271080840015,,,,
stim_set/hard-vcom=2-110.png,none.png,unmotivated,3.0,fall,left,hard,,592.1276630420034,593.6865851670009,correct,1.5077586670013259,fall,left,5.0,599.4650132500027,,,,
stim_set/hard-7.png,none.png,unmotivated,2.25,stand,right,hard,,599.4656333750028,601.6966729589985,incorrect,2.17830829200102,fall,left,5.0,606.6113226669986,,,,
stim_set/hard-21.png,none.png,unmotivated,4.0,stand,right,hard,,606.6118797090021,608.7131539999973,incorrect,2.0546977080011857,fall,left,5.0,615.5606215419975,,,,
stim_set/hard-vcom=4-142.png,none.png,unmotivated,4.0,fall,left,hard,,615.5612509999993,618.6030658750024,incorrect,2.9887615000043297,stand,right,3.0,625.8582251670014,,,,
stim_set/hard-91.png,none.png,unmotivated,2.25,stand,right,hard,,625.8587247090036,629.1799185420023,incorrect,3.27181891699729,fall,left,5.0,633.7478427090027,,,,
stim_set/easy-77.png,none.png,unmotivated,3.0,stand,right,easy,,633.7483964999992,635.0948678749992,correct,1.2941795840015402,stand,right,5.0,640.6646420000034,,,,
stim_set/easy-vcom=4-19.png,none.png,unmotivated,3.25,fall,left,easy,,640.6653787920003,642.2214665840003,incorrect,1.5043325830047252,stand,right,5.0,648.3147833339973,,,,
stim_set/hard-vcom=1-50.png,none.png,unmotivated,3.75,fall,left,hard,,648.3155303750027,650.0615265840024,incorrect,1.689123957999982,stand,right,3.0,656.9760146249972,656.9763410000014,,,
stim_set/easy-vcom=2-20.png,stand.png,cooperation,4.0,fall,left,easy,,,,,,,,,,,,,
stim_set/hard-570.png,stand.png,cooperation,2.0,stand,right,hard,,,,,,,,,,,,,
stim_set/hard-vcom=3-110.png,stand.png,cooperation,2.0,fall,left,hard,,,,,,,,,,,,,
stim_set/hard-600.png,fall.png,cooperation,3.0,stand,right,hard,,,,,,,,,,,,,
stim_set/hard-244.png,stand.png,cooperation,2.5,stand,right,hard,,,,,,,,,,,,,
stim_set/easy-vcom=1-73.png,stand.png,cooperation,2.5,fall,left,easy,,,,,,,,,,,,,
stim_set/easy-vcom=3-15.png,fall.png,cooperation,3.0,fall,left,easy,,,,,,,,,,,,,
stim_set/hard-vcom=3-145.png,stand.png,cooperation,3.75,fall,left,hard,,,,,,,,,,,,,
stim_set/easy-vcom=3-74.png,fall.png,cooperation,2.25,fall,left,easy,,,,,,,,,,,,,
stim_set/easy-77.png,fall.png,cooperation,2.5,stand,right,easy,,,,,,,,,,,,,
stim_set/easy-538.png,stand.png,cooperation,2.5,stand,right,easy,,,,,,,,,,,,,
stim_set/hard-vcom=3-34.png,fall.png,cooperation,3.25,fall,left,hard,,,,,,,,,,,,,
stim_set/hard-vcom=4-139.png,stand.png,cooperation,2.75,fall,left,hard,,,,,,,,,,,,,
stim_set/easy-13.png,fall.png,cooperation,3.25,stand,right,easy,,,,,,,,,,,,,
stim_set/hard-280.png,stand.png,cooperation,3.25,stand,right,hard,,,,,,,,,,,,,
stim_set/hard-599.png,fall.png,cooperation,2.0,stand,right,hard,,,,,,,,,,,,,
stim_set/hard-402.png,fall.png,cooperation,3.75,stand,right,hard,,,,,,,,,,,,,
stim_set/easy-vcom=2-147.png,fall.png,cooperation,3.0,fall,left,easy,,,,,,,,,,,,,
stim_set/hard-2.png,stand.png,cooperation,3.25,stand,right,hard,,,,,,,,,,,,,
stim_set/hard-566.png,fall.png,cooperation,3.25,stand,right,hard,,,,,,,,,,,,,
stim_set/easy-590.png,fall.png,cooperation,4.0,stand,right,easy,,,,,,,,,,,,,
stim_set/easy-vcom=4-126.png,stand.png,cooperation,2.5,fall,left,easy,,,,,,,,,,,,,
stim_set/easy-vcom=2-94.png,stand.png,cooperation,4.0,fall,left,easy,,,,,,,,,,,,,
stim_set/hard-vcom=2-147.png,fall.png,cooperation,2.5,fall,left,hard,,,,,,,,,,,,,
stim_set/easy-411.png,stand.png,cooperation,2.0,stand,right,easy,,,,,,,,,,,,,
stim_set/hard-vcom=3-7.png,fall.png,cooperation,2.75,fall,left,hard,,,,,,,,,,,,,
stim_set/hard-14.png,fall.png,cooperation,2.5,stand,right,hard,,,,,,,,,,,,,
stim_set/hard-49.png,stand.png,cooperation,3.0,stand,right,hard,,,,,,,,,,,,,
stim_set/hard-82.png,fall.png,cooperation,2.25,stand,right,hard,,,,,,,,,,,,,
stim_set/hard-492.png,stand.png,cooperation,2.25,stand,right,hard,,,,,,,,,,,,,
stim_set/hard-345.png,stand.png,cooperation,2.25,stand,right,hard,,,,,,,,,,,,,
stim_set/hard-40.png,fall.png,cooperation,3.0,stand,right,hard,,,,,,,,,,,,,
stim_set/easy-vcom=2-3.png,stand.png,cooperation,3.75,fall,left,easy,,,,,,,,,,,,,
stim_set/hard-vcom=1-50.png,stand.png,cooperation,4.0,fall,left,hard,,,,,,,,,,,,,
stim_set/hard-vcom=1-30.png,fall.png,cooperation,2.5,fall,left,hard,,,,,,,,,,,,,
stim_set/hard-369.png,stand.png,cooperation,2.5,stand,right,hard,,,,,,,,,,,,,
stim_set/hard-vcom=1-3.png,stand.png,cooperation,2.25,fall,left,hard,,,,,,,,,,,,,
stim_set/easy-vcom=4-69.png,fall.png,cooperation,4.0,fall,left,easy,,,,,,,,,,,,,
stim_set/easy-344.png,stand.png,cooperation,2.75,stand,right,easy,,,,,,,,,,,,,
stim_set/hard-564.png,fall.png,cooperation,2.25,stand,right,hard,,,,,,,,,,,,,
stim_set/hard-vcom=3-142.png,stand.png,cooperation,4.0,fall,left,hard,,,,,,,,,,,,,
stim_set/hard-382.png,stand.png,cooperation,3.75,stand,right,hard,,,,,,,,,,,,,
stim_set/hard-vcom=4-75.png,fall.png,cooperation,2.0,fall,left,hard,,,,,,,,,,,,,
stim_set/hard-321.png,fall.png,cooperation,2.25,stand,right,hard,,,,,,,,,,,,,
stim_set/hard-vcom=2-20.png,stand.png,cooperation,2.0,fall,left,hard,,,,,,,,,,,,,
stim_set/hard-vcom=4-23.png,fall.png,cooperation,3.0,fall,left,hard,,,,,,,,,,,,,
stim_set/hard-vcom=1-136.png,stand.png,cooperation,2.75,fall,left,hard,,,,,,,,,,,,,
stim_set/hard-vcom=1-95.png,fall.png,cooperation,2.5,fall,left,hard,,,,,,,,,,,,,
stim_set/easy-vcom=1-12.png,stand.png,cooperation,2.25,fall,left,easy,,,,,,,,,,,,,
stim_set/hard-vcom=2-137.png,stand.png,cooperation,2.25,fall,left,hard,,,,,,,,,,,,,
stim_set/hard-vcom=2-16.png,fall.png,cooperation,2.25,fall,left,hard,,,,,,,,,,,,,
stim_set/hard-vcom=2-100.png,stand.png,cooperation,4.0,fall,left,hard,,,,,,,,,,,,,
stim_set/hard-441.png,fall.png,cooperation,2.0,stand,right,hard,,,,,,,,,,,,,
stim_set/hard-vcom=3-82.png,fall.png,cooperation,2.5,fall,left,hard,,,,,,,,,,,,,
stim_set/hard-549.png,stand.png,cooperation,2.25,stand,right,hard,,,,,,,,,,,,,
stim_set/hard-391.png,stand.png,cooperation,2.75,stand,right,hard,,,,,,,,,,,,,
stim_set/hard-367.png,fall.png,cooperation,3.75,stand,right,hard,,,,,,,,,,,,,
stim_set/easy-vcom=4-19.png,fall.png,cooperation,2.25,fall,left,easy,,,,,,,,,,,,,
stim_set/hard-vcom=4-80.png,stand.png,cooperation,4.0,fall,left,hard,,,,,,,,,,,,,
stim_set/hard-vcom=4-142.png,fall.png,cooperation,2.25,fall,left,hard,,,,,,,,,,,,,
stim_set/hard-21.png,fall.png,cooperation,2.5,stand,right,hard,,,,,,,,,,,,,
stim_set/easy-vcom=3-38.png,stand.png,cooperation,2.25,fall,left,easy,,,,,,,,,,,,,
stim_set/easy-vcom=3-142.png,fall.png,cooperation,3.25,fall,left,easy,,,,,,,,,,,,,
stim_set/easy-164.png,stand.png,cooperation,3.75,stand,right,easy,,,,,,,,,,,,,
stim_set/hard-316.png,fall.png,cooperation,2.5,stand,right,hard,,,,,,,,,,,,,
stim_set/hard-vcom=4-92.png,stand.png,cooperation,2.25,fall,left,hard,,,,,,,,,,,,,
stim_set/hard-78.png,fall.png,cooperation,2.25,stand,right,hard,,,,,,,,,,,,,
stim_set/easy-280.png,stand.png,cooperation,3.0,stand,right,easy,,,,,,,,,,,,,
stim_set/easy-vcom=1-87.png,fall.png,cooperation,2.5,fall,left,easy,,,,,,,,,,,,,
stim_set/easy-vcom=1-145.png,stand.png,cooperation,3.75,fall,left,easy,,,,,,,,,,,,,
stim_set/hard-91.png,fall.png,cooperation,3.75,stand,right,hard,,,,,,,,,,,,,
stim_set/hard-182.png,stand.png,cooperation,2.75,stand,right,hard,,,,,,,,,,,,,
stim_set/hard-177.png,stand.png,cooperation,2.0,stand,right,hard,,,,,,,,,,,,,
stim_set/hard-132.png,fall.png,cooperation,3.0,stand,right,hard,,,,,,,,,,,,,
stim_set/hard-vcom=2-110.png,fall.png,cooperation,2.5,fall,left,hard,,,,,,,,,,,,,
stim_set/hard-214.png,fall.png,cooperation,3.25,stand,right,hard,,,,,,,,,,,,,
stim_set/hard-334.png,stand.png,cooperation,2.75,stand,right,hard,,,,,,,,,,,,,
stim_set/hard-vcom=1-130.png,fall.png,cooperation,2.5,fall,left,hard,,,,,,,,,,,,,
stim_set/hard-7.png,stand.png,cooperation,2.75,stand,right,hard,,,,,,,,,,,,,
stim_set/hard-vcom=4-147.png,fall.png,cooperation,3.25,fall,left,hard,,,,,,,,,,,,,
stim_set/easy-vcom=4-126.png,stand.png,competition,3.0,fall,left,easy,0.0001458749975427054,0.0007495419995393604,8.657610916998237,incorrect,3.6095843329967465,stand,right,4,15.093291708995821,,,,1.0135129999980563
stim_set/easy-280.png,stand.png,competition,3.75,stand,right,easy,,15.093878833999042,21.474037624997436,correct,1.3399265830012155,stand,right,5,28.80348687499645,,,,16.1048402919987
stim_set/hard-321.png,fall.png,competition,3.0,stand,right,hard,,28.804055499997048,35.66745524999715,incorrect,1.8282757909983047,fall,left,5,43.54414262499631,,,,29.815225916994677
stim_set/hard-vcom=2-147.png,stand.png,competition,2.0,fall,left,hard,,43.54469616699498,50.575913417000265,incorrect,2.0009926249986165,stand,right,4,56.26129054199555,,,,44.55584249999811
stim_set/hard-2.png,fall.png,competition,2.75,stand,right,hard,,56.26183399999718,64.44058054199559,correct,3.1369499590000487,stand,right,4,70.89983204199962,,,,57.27204579199315
stim_set/easy-vcom=2-3.png,fall.png,competition,2.5,fall,left,easy,,70.90038804199867,78.0674642919912,incorrect,2.1291608749961597,stand,right,5,84.0337517500011,,,,71.91068329199334
stim_set/hard-21.png,stand.png,competition,2.25,stand,right,hard,,84.03436795900052,92.25705041699985,incorrect,3.1818810000113444,fall,left,3,98.85542624999653,,,,85.04548670900112
stim_set/easy-vcom=1-12.png,fall.png,competition,2.75,fall,left,easy,,98.85605816700263,105.85732083399489,correct,1.9572071669972502,fall,left,4,112.73843145900173,,,,99.86689854199358
stim_set/easy-vcom=2-147.png,stand.png,competition,2.5,fall,left,easy,,112.73904249999032,120.44864266699005,correct,2.6674868749978486,fall,left,4,125.98379991699767,,,,113.74982933400315
stim_set/hard-367.png,fall.png,competition,3.0,stand,right,hard,,125.98433016698982,134.3070007089991,incorrect,3.2829231670039007,fall,left,3,140.4830300839967,,,,126.99454287499248
stim_set/hard-vcom=4-80.png,stand.png,competition,2.5,fall,left,hard,,140.48371287499322,146.9500219170004,correct,1.4276788749994012,fall,left,5,152.72780066699488,,,,141.49430820900307
stim_set/hard-82.png,stand.png,competition,2.25,stand,right,hard,,152.7283793749957,159.48174066698994,correct,1.7110623750049854,stand,right,5,164.5089533339924,,,,153.73870158399222
stim_set/easy-vcom=4-19.png,fall.png,competition,2.0,fall,left,easy,,164.50948712500394,170.94003779199556,incorrect,1.3870912500133272,stand,right,5,176.1663639999897,,,,165.51966454199282
stim_set/hard-7.png,fall.png,competition,2.0,stand,right,hard,,176.16699445899576,184.04828974998964,incorrect,2.836747875000583,fall,left,3,189.42014562500117,,,,177.17711279199284
stim_set/easy-vcom=3-142.png,stand.png,competition,2.5,fall,left,easy,,189.4207144999964,197.67350620900106,incorrect,3.210465500000282,stand,right,3,203.6499557920033,,,,190.4312817089958
stim_set/easy-vcom=3-74.png,fall.png,competition,2.25,fall,left,easy,,203.65056466699752,211.35655762499664,incorrect,2.6630393329978688,stand,right,3,217.10217162499612,,,,204.66110591699544
stim_set/hard-vcom=2-16.png,stand.png,competition,2.25,fall,left,hard,,217.10270483400382,224.96642299999075,incorrect,2.823734332996537,stand,right,4,230.66985700000077,,,,218.11318308400223
stim_set/hard-vcom=4-139.png,fall.png,competition,2.5,fall,left,hard,,230.67039308400126,237.81481308399816,incorrect,2.105387834002613,stand,right,5,243.3592672090017,,,,231.68042341699766
stim_set/hard-vcom=4-147.png,fall.png,competition,2.5,fall,left,hard,,243.35980754200136,252.3245776249969,incorrect,3.9256969170091907,stand,right,5,258.4487875420018,,,,244.36991216699244
stim_set/easy-vcom=1-87.png,stand.png,competition,2.5,fall,left,easy,,258.449310875003,265.7814795419981,incorrect,2.2877991670102347,stand,right,3,272.36081625000224,,,,259.46020837499236
stim_set/easy-vcom=4-69.png,fall.png,competition,3.0,fall,left,easy,,272.3613634999929,278.76473887499014,incorrect,1.3605869590101065,stand,right,5,284.5789018749929,,,,273.37183858400385
stim_set/hard-316.png,fall.png,competition,3.75,stand,right,hard,,284.5796361249959,292.7559714169911,correct,3.1374631250073435,stand,right,3,298.96925429199473,,,,285.58980295900255
stim_set/easy-13.png,stand.png,competition,2.25,stand,right,easy,,298.96989458399185,305.4728208339948,correct,1.4583835000084946,stand,right,5,310.74901979199785,,,,299.98122237499047
stim_set/hard-182.png,stand.png,competition,2.25,stand,right,hard,,310.749752083997,317.2978027499921,incorrect,1.5142663750011707,fall,left,5,322.3970704999956,,,,311.76028937500087
stim_set/hard-vcom=4-92.png,fall.png,competition,3.75,fall,left,hard,,322.3977527090028,329.7312395839981,correct,2.289514832998975,fall,left,4,337.0419489999913,,,,323.4082012919971
stim_set/hard-564.png,stand.png,competition,4.0,stand,right,hard,,337.04249820898985,343.5081351669942,incorrect,1.4270950840000296,fall,left,5,350.6268885419995,,,,338.0533012919914
stim_set/hard-vcom=1-3.png,stand.png,competition,2.5,fall,left,hard,,350.6274048339983,357.8311222499906,correct,2.1631825829972513,fall,left,4,363.84044087499205,,,,351.6379194170004
stim_set/easy-164.png,fall.png,competition,2.5,stand,right,easy,,363.8411203750002,370.22277574999316,correct,1.3376358749956125,stand,right,5,376.09610987499764,,,,364.851599792004
stim_set/hard-vcom=1-50.png,fall.png,competition,3.75,fall,left,hard,,376.09667783399345,383.42280462499184,incorrect,2.2814616249961546,stand,right,4,390.9619473749917,,,,377.1071127089963
stim_set/hard-vcom=1-95.png,fall.png,competition,2.25,fall,left,hard,,390.9624886669917,399.17464929199195,incorrect,3.177190332993632,stand,right,3,405.11783741699765,,,,391.9729841669905
stim_set/hard-280.png,fall.png,competition,2.5,stand,right,hard,,405.11839154199697,412.0225542919943,correct,1.8608039589889813,stand,right,5,418.39120604199707,,,,406.1284945840016
stim_set/hard-14.png,stand.png,competition,4.0,stand,right,hard,,418.3917568339966,424.81443345900334,correct,1.3883243750024121,stand,right,5,431.55499950000376,,,,419.40256237499125
stim_set/hard-78.png,fall.png,competition,2.5,stand,right,hard,,431.55570329198963,438.030764583993,incorrect,1.4339106249972247,fall,left,4,444.3760192089976,,,,432.56590079200396
stim_set/hard-91.png,fall.png,competition,2.0,stand,right,hard,,444.3766355419939,451.7807380000013,correct,2.3619816249993164,stand,right,4,457.11564158399415,,,,445.3871622089937
stim_set/hard-vcom=1-30.png,stand.png,competition,2.75,fall,left,hard,,457.1161793749925,466.6390611669922,correct,4.484432082987041,fall,left,4,472.4912022089993,,,,458.12680083399755
stim_set/hard-vcom=2-137.png,fall.png,competition,3.0,fall,left,hard,,472.4917556250002,479.94745358399814,incorrect,2.4174777080042986,stand,right,3,486.3716257499909,,,,473.5025325000024
stim_set/hard-vcom=1-130.png,fall.png,competition,3.25,fall,left,hard,,486.37217516699457,493.53266079199966,incorrect,2.125693207999575,stand,right,4,500.1255419169902,,,,487.38235591699777
stim_set/hard-vcom=4-23.png,stand.png,competition,3.25,fall,left,hard,,500.1261020840029,506.90582633399754,incorrect,1.7397254999959841,stand,right,5,513.9983187920006,,,,501.1366477499978
stim_set/hard-vcom=3-34.png,stand.png,competition,2.5,fall,left,hard,,513.9988569589914,521.340371333994,incorrect,2.3014180829923134,stand,right,3,527.158613416992,,,,515.009796917002
stim_set/hard-441.png,fall.png,competition,4.0,stand,right,hard,,527.1591482090007,533.5155133340013,correct,1.3233150000014575,stand,right,5,540.5705871669925,540.5709239999996,,,528.1696472499898
stim_set/hard-244.png,stand.png,competition,4.0,stand,right,hard,544.4329225419933,544.4336426669906,551.1988856249955,correct,1.7221951670071576,stand,right,5,558.2263224170019,,,,545.4477765839983
stim_set/hard-vcom=3-7.png,stand.png,competition,2.25,fall,left,hard,,558.2270448339987,565.830359708998,correct,2.563552833002177,fall,left,3,571.2752481249918,,,,559.2372579999937
stim_set/easy-411.png,stand.png,competition,2.25,stand,right,easy,,571.2757606249943,578.1985757919902,correct,1.8836954169964883,stand,right,5,583.5716440839897,,,,572.2864436249947
stim_set/hard-vcom=2-20.png,fall.png,competition,3.75,fall,left,hard,,583.5721261250001,591.2151307919994,incorrect,2.604447333011194,stand,right,5,598.1699791249994,,,,584.5824153339927
stim_set/easy-vcom=2-94.png,stand.png,competition,4.0,fall,left,easy,,598.1705209170032,605.7970913750032,incorrect,2.58612591700512,stand,right,5,612.7053001669992,,,,599.1814571669966
stim_set/hard-vcom=3-110.png,fall.png,competition,2.5,fall,left,hard,,612.7059243749973,621.757050500004,correct,4.0221143329981714,fall,left,3,627.7757033340022,,,,613.7159264169895
stim_set/hard-vcom=1-136.png,fall.png,competition,3.25,fall,left,hard,,627.776327583997,636.1654252500011,correct,3.3541778749931837,fall,left,3,642.7328464589955,,,,628.7864909589989
stim_set/hard-vcom=2-100.png,stand.png,competition,2.75,fall,left,hard,,642.7333830839925,651.3135444170039,incorrect,3.539600417003385,stand,right,3,658.0417353749945,,,,643.7438182089973
stim_set/easy-vcom=3-15.png,stand.png,competition,3.0,fall,left,easy,,658.0423814590031,664.4570165839978,incorrect,1.378693958002259,stand,right,5,671.1483432090026,,,,659.0533714170015
stim_set/easy-590.png,fall.png,competition,4.0,stand,right,easy,,671.1489052090037,677.5401072499953,correct,1.3517535829887493,stand,right,5,684.6808622919925,,,,672.1593084170017
stim_set/hard-600.png,stand.png,competition,2.25,stand,right,hard,,684.6814863749896,692.7550281669974,incorrect,3.0384981669922126,fall,left,3,698.8060639169998,,,,685.6925363339979
stim_set/hard-40.png,fall.png,competition,2.25,stand,right,hard,,698.8066135839908,707.5985231249942,incorrect,3.7543460830056574,fall,left,3,712.9160009589978,,,,699.8170380419906
stim_set/easy-vcom=1-73.png,stand.png,competition,4.0,fall,left,easy,,712.9165658339916,719.9715575000009,incorrect,2.020889500010526,stand,right,3,726.8418329589913,,,,713.9276392500033
stim_set/hard-492.png,fall.png,competition,2.25,stand,right,hard,,726.8424005839915,736.1465944169904,correct,4.2632698329980485,stand,right,3,741.7563112089993,,,,727.8526859999984
stim_set/hard-382.png,stand.png,competition,2.0,stand,right,hard,,741.7568619999947,750.1298489170003,correct,3.3390153749933233,stand,right,4,755.5470421670034,,,,742.7677164170018
stim_set/hard-vcom=2-110.png,fall.png,competition,2.25,fall,left,hard,,755.5475940420001,763.6068167920021,incorrect,3.025192083994625,stand,right,3,769.0749441249936,,,,756.5576026670024
stim_set/hard-334.png,stand.png,competition,3.25,stand,right,hard,,769.0755118749948,775.7714787500008,correct,1.658098959000199,stand,right,4,782.3501957919943,,,,770.0862177090021
stim_set/hard-49.png,fall.png,competition,3.75,stand,right,hard,,782.3507485000009,792.0795228749921,correct,4.683705791001557,stand,right,4,799.7763418340037,,,,783.3610220419941
stim_set/hard-vcom=4-142.png,fall.png,competition,2.75,fall,left,hard,,799.7770675420034,806.1546007500001,incorrect,1.3371084579994204,stand,right,4,813.1365721249895,,,,800.7874434999976
stim_set/hard-vcom=3-145.png,stand.png,competition,4.0,fall,left,hard,,813.1372699170024,819.6545541669911,incorrect,1.4836005840043072,stand,right,5,826.970781875003,,,,814.1478121669934
stim_set/hard-345.png,fall.png,competition,3.25,stand,right,hard,,826.9714677919983,833.24639866699,correct,1.2348805839865236,stand,right,5,839.4519014589896,,,,827.9818279589963
stim_set/hard-599.png,stand.png,competition,2.25,stand,right,hard,,839.4524619589938,846.4315463749954,correct,1.950123041999177,stand,right,3,852.1720888749987,,,,840.4630082090007
stim_set/hard-549.png,fall.png,competition,2.75,stand,right,hard,,852.1726359589957,858.9712359589903,correct,1.7573965830088127,stand,right,3,864.4391682089918,,,,853.1830064169917
stim_set/hard-177.png,stand.png,competition,3.75,stand,right,hard,,864.4396865419985,874.237913584002,correct,4.764014999993378,stand,right,3,882.1600173339975,,,,865.4505948750011
stim_set/easy-vcom=1-145.png,fall.png,competition,2.5,fall,left,easy,,882.1605808339955,889.997907166995,correct,2.800023832998704,fall,left,4,895.8393362499919,,,,883.1710597920028
stim_set/hard-214.png,stand.png,competition,2.0,stand,right,hard,,895.839939958998,905.5377175839967,correct,4.654055625011097,stand,right,3,910.5686815419904,,,,896.8507607499923
stim_set/easy-538.png,fall.png,competition,2.5,stand,right,easy,,910.5692274169996,917.2707389589923,correct,1.6643830000102753,stand,right,5,922.7168148749915,,,,911.5792852919985
stim_set/hard-vcom=4-75.png,stand.png,competition,3.25,fall,left,hard,,922.717376583998,929.5559883340029,incorrect,1.8000443339988124,stand,right,4,936.0268320000032,,,,923.7277015
stim_set/hard-vcom=3-82.png,fall.png,competition,2.25,fall,left,hard,,936.027367208997,943.8042002089933,correct,2.7343872909987113,fall,left,3,949.6757668339997,,,,937.038334041994
stim_set/hard-570.png,stand.png,competition,2.0,stand,right,hard,,949.676311874995,959.5290601669985,correct,4.808348582999315,stand,right,4,965.0900516249967,,,,950.6869965419901
stim_set/hard-566.png,fall.png,competition,3.75,stand,right,hard,,965.0905972089968,973.5813045419927,correct,3.4504163749952568,stand,right,4,981.784042083993,,,,966.1010139999999
stim_set/hard-vcom=3-142.png,stand.png,competition,2.75,fall,left,hard,,981.7845947919996,988.3872895840032,incorrect,1.5584358339983737,stand,right,4,994.279014959,,,,982.7954794169927
stim_set/easy-vcom=3-38.png,stand.png,competition,2.5,fall,left,easy,,994.2795526249975,1001.0875054589997,incorrect,1.7644481669995002,stand,right,5,1006.7327763749927,,,,995.2900692089897
stim_set/easy-77.png,fall.png,competition,2.0,stand,right,easy,,1006.7332964169909,1012.8623462919932,correct,1.0896113749913638,stand,right,5,1017.288115125004,,,,1007.7435874999937
stim_set/easy-vcom=2-20.png,fall.png,competition,3.0,fall,left,easy,,1017.2887649589975,1024.8624216250028,incorrect,2.534496417007176,stand,right,5,1031.2252128339896,,,,1018.2988988750003
stim_set/hard-402.png,stand.png,competition,2.25,stand,right,hard,,1031.225745333999,1039.228837083996,correct,2.9599361669970676,stand,right,3,1045.1237295419996,,,,1032.2368199170014
stim_set/hard-369.png,fall.png,competition,3.0,stand,right,hard,,1045.1242746249918,1051.605915209002,correct,1.4526522500091232,stand,right,5,1057.7219127499993,,,,1046.1347173749964
stim_set/easy-344.png,fall.png,competition,3.25,stand,right,easy,,1057.7225073750014,1064.2058913749934,correct,1.449455541005591,stand,right,5,1070.4990636669972,,,,1058.7327591670037
stim_set/hard-391.png,stand.png,competition,3.25,stand,right,hard,,1070.4996535419923,1078.1386442090006,correct,2.6045496669976274,stand,right,3,1084.3298763749917,,,,1071.5101677499915
stim_set/hard-132.png,fall.png,competition,2.75,stand,right,hard,,1084.330453542003,1091.9038089169917,correct,2.5336275000008754,stand,right,3,1097.7752598340012,1097.7756714999996,,,1085.3407505840005
stim_set/hard-410.png,stand.png,cooperation,3.75,stand,right,hard,,,,,,,,,,,,,
stim_set/hard-188.png,stand.png,competition,4.0,stand,right,hard,3.083994670305401e-06,0.0022642089970759116,8.785709708994546,incorrect,3.771848834003322,fall,left,3,19.589039458995103,19.589582083994173,,,1.0166932919964893
