towers,bet,condition,iti,corr_choice,corr_key,difficulty,block_start,trial_start,stim_on,acc,rt,part_choice,part_key,confidence,trial_end,block_end,updated_score,condition_first,cue_on
stim_set/hard-600.png,none.png,unmotivated,2.5,stand,right,hard,3.8330035749822855e-06,0.002789582998957485,2.7611870420078053,incorrect,2.7080422500002896,fall,left,2.0,12.049113458007927,,240.0,competition,
stim_set/hard-vcom=4-147.png,none.png,unmotivated,2.25,fall,left,hard,,12.050346167001408,16.65447458300332,correct,4.551740458991843,fall,left,3.0,22.782029833004344,,455.0,,
stim_set/easy-vcom=1-12.png,none.png,unmotivated,2.0,fall,left,easy,,22.78262954200909,25.977948166997518,correct,3.138734665990341,fall,left,3.0,32.823189375005306,,,,
stim_set/hard-492.png,none.png,unmotivated,2.0,stand,right,hard,,32.82373187500343,37.89595137500146,incorrect,,,,,42.175734750009724,,,,
stim_set/hard-vcom=2-137.png,none.png,unmotivated,3.0,fall,left,hard,,42.17629850000958,43.84640066701104,correct,1.624173583011725,fall,left,3.0,50.83557529200335,,,,
stim_set/easy-vcom=2-147.png,none.png,unmotivated,3.25,fall,left,easy,,50.83639008300088,53.95291800000996,correct,3.062006874999497,fall,left,4.0,60.534087042004096,,,,
stim_set/easy-vcom=1-73.png,none.png,unmotivated,2.5,fall,left,easy,,60.53463662500144,63.48006470799737,correct,2.90317491600581,fall,left,3.0,72.04074075000244,,,,
stim_set/easy-344.png,none.png,unmotivated,4.0,stand,right,easy,,72.04129074999946,74.05273550000857,correct,1.9603842080105096,stand,right,4.0,81.1558215420082,,,,
stim_set/easy-vcom=4-126.png,none.png,unmotivated,2.5,fall,left,easy,,81.1564037920034,84.73781483300263,incorrect,3.5296561249997467,stand,right,2.0,90.47014358300656,,,,
stim_set/hard-vcom=2-147.png,none.png,unmotivated,2.5,fall,left,hard,,90.47075141700044,94.5131835420034,correct,4.0002370409929435,fall,left,2.0,100.35141458299769,,,,
stim_set/hard-132.png,none.png,unmotivated,3.75,stand,right,hard,,100.3519639169972,101.74429858299843,incorrect,1.3392892080009915,fall,left,5.0,109.0898729170003,,,,
stim_set/hard-vcom=3-7.png,none.png,unmotivated,2.75,fall,left,hard,,109.09047895800906,113.01101066700356,correct,3.869184958995902,fall,left,5.0,118.36817475000862,,,,
stim_set/hard-391.png,none.png,unmotivated,2.25,stand,right,hard,,118.36876141700485,121.2881678749982,incorrect,2.872010791004868,fall,left,5.0,126.74254266700882,,,,
stim_set/hard-402.png,none.png,unmotivated,2.5,stand,right,hard,,126.74311304200093,128.86094329200571,incorrect,2.0628610419953475,fall,left,5.0,134.66412437500549,,,,
stim_set/easy-13.png,none.png,unmotivated,2.5,stand,right,easy,,134.66467304200341,136.01098425000964,correct,1.290252333012177,stand,right,3.0,142.3204917920084,,,,
stim_set/hard-367.png,none.png,unmotivated,2.5,stand,right,hard,,142.32103504199767,146.43594545799715,incorrect,4.062583332997747,fall,left,4.0,153.9909806250071,,,,
stim_set/easy-vcom=2-20.png,none.png,unmotivated,2.25,fall,left,easy,,153.9915881250054,155.72756391701114,correct,1.6841218329936964,fall,left,3.0,163.18969870801084,,,,
stim_set/hard-316.png,none.png,unmotivated,2.0,stand,right,hard,,163.19024329200332,166.11254383300547,incorrect,2.875281541011645,fall,left,2.0,173.5803859169973,,,,
stim_set/hard-82.png,none.png,unmotivated,3.75,stand,right,hard,,173.58093383300002,178.64537266700063,incorrect,,,,,184.04466254200088,,,,
stim_set/hard-564.png,none.png,unmotivated,3.75,stand,right,hard,,184.045236542006,185.2209056670108,incorrect,1.1252898329985328,fall,left,5.0,191.60823262500344,,,,
stim_set/hard-vcom=3-142.png,none.png,unmotivated,3.25,fall,left,hard,,191.6088340830029,194.6626419170061,correct,3.0022445840004366,fall,left,2.0,201.2488012079993,,,,
stim_set/hard-566.png,none.png,unmotivated,3.75,stand,right,hard,,201.2493638330052,202.75373912500802,incorrect,1.4527318339969495,fall,left,5.0,209.10404312500032,,,,
stim_set/hard-280.png,none.png,unmotivated,2.25,stand,right,hard,,209.10472704200947,212.31929779199712,correct,3.158207624990609,stand,right,2.0,217.1169186670013,,,,
stim_set/hard-vcom=3-145.png,none.png,unmotivated,2.75,fall,left,hard,,217.1175723330089,220.75224570800486,incorrect,3.5885689170099795,stand,right,3.0,226.93712858299838,,,,
stim_set/easy-vcom=2-94.png,none.png,unmotivated,2.75,fall,left,easy,,226.9379460420023,228.50241975000245,correct,1.5125834170030432,fall,left,4.0,233.71250100000182,,,,
stim_set/hard-vcom=4-80.png,none.png,unmotivated,3.75,fall,left,hard,,233.71308958300503,234.97904099999872,correct,1.2146559999964666,fall,left,5.0,241.85790004199956,,,,
stim_set/hard-599.png,none.png,unmotivated,3.0,stand,right,hard,,241.85851991700474,243.3788505830016,incorrect,1.4798063750058643,fall,left,3.0,249.7561882500013,,,,
stim_set/hard-182.png,none.png,unmotivated,4.0,stand,right,hard,,249.7567154999997,251.58569262499802,incorrect,1.7827305829996476,fall,left,3.0,259.067385250004,,,,
stim_set/hard-570.png,none.png,unmotivated,2.25,stand,right,hard,,259.0679983330046,260.33568812500744,incorrect,1.210859041006188,fall,left,5.0,265.12444333299936,,,,
stim_set/easy-vcom=4-69.png,none.png,unmotivated,2.25,fall,left,easy,,265.12503762501,269.9287665830052,correct,4.753277750001871,fall,left,4.0,275.7339724580088,,,,
stim_set/easy-280.png,none.png,unmotivated,3.0,stand,right,easy,,275.73456895801064,278.4190070830082,correct,2.6326107079949,stand,right,5.0,285.7069703330053,,,,
stim_set/hard-2.png,none.png,unmotivated,2.75,stand,right,hard,,285.7075938750058,288.96196149999736,correct,3.2046555830020225,stand,right,2.0,295.34578608300944,,,,
stim_set/hard-vcom=2-100.png,none.png,unmotivated,3.25,fall,left,hard,,295.34637912501057,299.01051587500837,correct,3.6109097919979827,fall,left,3.0,304.7558667080011,,,,
stim_set/hard-177.png,none.png,unmotivated,2.0,stand,right,hard,,304.7564768330048,308.5354507500015,incorrect,3.733159875002457,fall,left,3.0,313.8201510000072,,,,
stim_set/hard-244.png,none.png,unmotivated,3.25,stand,right,hard,,313.82068866700865,317.6105020000105,incorrect,3.733071291993838,fall,left,2.0,324.5971740829991,,,,
stim_set/easy-538.png,none.png,unmotivated,2.5,stand,right,easy,,324.59771450000704,327.5705225830025,correct,2.9270369169971677,stand,right,3.0,333.43967345800775,,,,
stim_set/easy-vcom=3-15.png,none.png,unmotivated,2.25,fall,left,easy,,333.44031758300844,336.852178458008,correct,3.3590077910048417,fall,left,3.0,342.42998679200537,,,,
stim_set/easy-vcom=1-145.png,none.png,unmotivated,3.75,fall,left,easy,,342.430561458008,343.71877120800485,correct,1.2345802920026472,fall,left,5.0,351.38623104200815,,,,
stim_set/hard-vcom=4-92.png,none.png,unmotivated,2.75,fall,left,hard,,351.38678470801096,355.1542706670007,correct,3.715704792004544,fall,left,3.0,360.4324210420018,,,,
stim_set/easy-vcom=1-87.png,none.png,unmotivated,3.0,fall,left,easy,,360.4329884170002,365.5019803750037,incorrect,,,,,370.21472524999984,370.2150847500016,,,
stim_set/easy-vcom=3-142.png,none.png,unmotivated,2.75,fall,left,easy,376.85708004199836,376.85790562500193,380.17720495800313,incorrect,3.2636986249999613,stand,right,2.0,385.2409906670073,,,,
stim_set/easy-590.png,none.png,unmotivated,2.5,stand,right,easy,,385.24153666700295,387.47083145800565,correct,2.1772963340044957,stand,right,4.0,392.55029204201134,,,,
stim_set/hard-78.png,none.png,unmotivated,2.25,stand,right,hard,,392.550815708004,393.8436859580106,incorrect,1.2386185840005055,fall,left,4.0,400.4894518330111,,,,
stim_set/hard-214.png,none.png,unmotivated,3.25,stand,right,hard,,400.4899936250004,402.3354798330111,incorrect,1.7889479160076007,fall,left,4.0,408.9803281670029,,,,
stim_set/hard-49.png,none.png,unmotivated,2.25,stand,right,hard,,408.9809557080007,412.5784510420053,correct,3.545132125000237,stand,right,1.0,418.9252673750016,,,,
stim_set/hard-441.png,none.png,unmotivated,2.5,stand,right,hard,,418.9257922079997,422.08523024999886,correct,3.109618666989263,stand,right,3.0,427.0142313329997,,,,
stim_set/hard-369.png,none.png,unmotivated,2.0,stand,right,hard,,427.0148650420015,430.00348254200065,correct,2.947678541997448,stand,right,2.0,436.4385746250046,,,,
stim_set/hard-345.png,none.png,unmotivated,2.5,stand,right,hard,,436.4392252079997,438.31190212500223,correct,1.8259365840058308,stand,right,3.0,443.4774708330078,,,,
stim_set/easy-vcom=3-38.png,none.png,unmotivated,2.5,fall,left,easy,,443.4782140419993,444.94373566700966,correct,1.4087135419977133,fall,left,4.0,450.93679287499987,,,,
stim_set/hard-vcom=2-16.png,none.png,unmotivated,2.5,fall,left,hard,,450.9373562920082,453.7620710000047,correct,2.772102416987764,fall,left,3.0,459.4616772080044,,,,
stim_set/easy-vcom=3-74.png,none.png,unmotivated,2.25,fall,left,easy,,459.46227141701087,460.7269933330099,correct,1.209077082996373,fall,left,5.0,465.4040422500111,,,,
stim_set/easy-vcom=2-3.png,none.png,unmotivated,4.0,fall,left,easy,,465.4045973330067,466.8535673330043,correct,1.3995903749892022,fall,left,5.0,473.35408691701,,,,
stim_set/hard-vcom=4-75.png,none.png,unmotivated,2.5,fall,left,hard,,473.35463020800665,474.951876207997,correct,1.541617916998803,fall,left,2.0,480.75144437499694,,,,
stim_set/hard-vcom=3-34.png,none.png,unmotivated,2.0,fall,left,hard,,480.752030167001,484.7935859170102,correct,3.9847544590011235,fall,left,4.0,491.83891987500834,,,,
stim_set/easy-164.png,none.png,unmotivated,4.0,stand,right,easy,,491.8394272500008,494.1699238330039,correct,2.278969832987059,stand,right,3.0,500.47412795800483,,,,
stim_set/hard-382.png,none.png,unmotivated,2.75,stand,right,hard,,500.474753625007,502.320091792004,incorrect,1.8046454580035058,fall,left,2.0,509.82453312500735,,,,
stim_set/hard-vcom=1-130.png,none.png,unmotivated,2.25,fall,left,hard,,509.82507695800456,512.5851798750082,incorrect,2.7078570000012405,stand,right,2.0,517.6766710420052,,,,
stim_set/easy-411.png,none.png,unmotivated,4.0,stand,right,easy,,517.6773925419984,518.8783868330065,correct,1.149487250004313,stand,right,5.0,526.0113747080031,,,,
stim_set/hard-40.png,none.png,unmotivated,3.0,stand,right,hard,,526.0119392080087,527.1518163750006,incorrect,1.0846204580011545,fall,left,5.0,532.5929766250047,,,,
stim_set/hard-vcom=4-139.png,none.png,unmotivated,4.0,fall,left,hard,,532.5935268750037,534.1184677920099,correct,1.473048416999518,fall,left,4.0,543.6992230830074,,,,
stim_set/hard-vcom=1-30.png,none.png,unmotivated,3.75,fall,left,hard,,543.6998351670045,544.6952573750023,correct,0.94988074999128,fall,left,5.0,550.9435212079989,,,,
stim_set/hard-vcom=3-82.png,none.png,unmotivated,2.25,fall,left,hard,,550.9440710830095,551.8602307920082,correct,0.8612645419925684,fall,left,5.0,556.4032729580067,,,,
stim_set/hard-321.png,none.png,unmotivated,2.25,stand,right,hard,,556.4040062499988,557.4032888330112,incorrect,0.9527713749994292,fall,left,5.0,561.9481577499973,,,,
stim_set/hard-vcom=2-20.png,none.png,unmotivated,2.25,fall,left,hard,,561.9486927079997,563.9435805829999,correct,1.9385190419998253,fall,left,3.0,569.0677369170007,,,,
stim_set/hard-vcom=1-95.png,none.png,unmotivated,2.0,fall,left,hard,,569.0682763329969,571.4698337919981,correct,2.354721334006172,fall,left,3.0,576.210302958003,,,,
stim_set/hard-vcom=4-23.png,none.png,unmotivated,2.5,fall,left,hard,,576.2108537500026,578.0118372080033,correct,1.7538950000016484,fall,left,3.0,584.0386014579999,,,,
stim_set/hard-334.png,none.png,unmotivated,2.0,stand,right,hard,,584.0392229999998,585.9117141250026,incorrect,1.8268814170005496,fall,left,3.0,591.0102247500035,,,,
stim_set/hard-14.png,none.png,unmotivated,3.25,stand,right,hard,,591.0107547920053,593.76842558301,incorrect,2.7117041669989703,fall,left,3.0,600.0845563330076,,,,
stim_set/hard-vcom=1-136.png,none.png,unmotivated,2.5,fall,left,hard,,600.0851129170043,602.4267201670009,correct,2.2893986249982845,fall,left,4.0,608.9827457080099,,,,
stim_set/hard-vcom=3-110.png,none.png,unmotivated,3.0,fall,left,hard,,608.9832824580079,610.2778917079995,incorrect,1.253541708996636,stand,right,2.0,615.609494208009,,,,
stim_set/hard-549.png,none.png,unmotivated,3.25,stand,right,hard,,615.6101379169995,618.3367528750097,incorrect,2.6777413340023486,fall,left,2.0,625.316729416998,,,,
stim_set/hard-vcom=1-3.png,none.png,unmotivated,2.75,fall,left,hard,,625.3172785000061,626.5349795420043,correct,1.1653356250026263,fall,left,5.0,631.6953134170035,,,,
stim_set/hard-vcom=2-110.png,none.png,unmotivated,3.0,fall,left,hard,,631.695866042006,634.4349905420095,correct,2.6880119999987078,fall,left,2.0,641.0829232079997,,,,
stim_set/hard-7.png,none.png,unmotivated,2.25,stand,right,hard,,641.0834605830022,642.3622174170014,incorrect,1.2259122499963269,fall,left,4.0,648.3499140420026,,,,
stim_set/hard-21.png,none.png,unmotivated,4.0,stand,right,hard,,648.3505247920111,649.9850157080073,incorrect,1.5828392499970505,fall,left,3.0,656.2660092919978,,,,
stim_set/hard-vcom=4-142.png,none.png,unmotivated,4.0,fall,left,hard,,656.266605458004,660.3688253750006,correct,4.054820874996949,fall,left,2.0,667.859487624999,,,,
stim_set/hard-91.png,none.png,unmotivated,2.25,stand,right,hard,,667.8602759580099,670.0864770830085,correct,2.177429207993555,stand,right,3.0,675.621095208,,,,
stim_set/easy-77.png,none.png,unmotivated,3.0,stand,right,easy,,675.621595375007,677.6849217499985,correct,2.010940959007712,stand,right,4.0,684.3621019580022,,,,
stim_set/easy-vcom=4-19.png,none.png,unmotivated,3.25,fall,left,easy,,684.3626110420009,686.0764679170097,incorrect,1.657896584001719,stand,right,2.0,691.6441687500046,,,,
stim_set/hard-vcom=1-50.png,none.png,unmotivated,3.75,fall,left,hard,,691.6447990419983,693.7349395420024,correct,2.033747791996575,fall,left,4.0,701.6969994170067,701.6973250000011,,,
stim_set/easy-vcom=2-20.png,stand.png,cooperation,4.0,fall,left,easy,,,,,,,,,,,,,
stim_set/hard-570.png,stand.png,cooperation,2.0,stand,right,hard,,,,,,,,,,,,,
stim_set/hard-vcom=3-110.png,stand.png,cooperation,2.0,fall,left,hard,,,,,,,,,,,,,
stim_set/hard-600.png,fall.png,cooperation,3.0,stand,right,hard,,,,,,,,,,,,,
stim_set/hard-244.png,stand.png,cooperation,2.5,stand,right,hard,,,,,,,,,,,,,
stim_set/easy-vcom=1-73.png,stand.png,cooperation,2.5,fall,left,easy,,,,,,,,,,,,,
stim_set/easy-vcom=3-15.png,fall.png,cooperation,3.0,fall,left,easy,,,,,,,,,,,,,
stim_set/hard-vcom=3-145.png,stand.png,cooperation,3.75,fall,left,hard,,,,,,,,,,,,,
stim_set/easy-vcom=3-74.png,fall.png,cooperation,2.25,fall,left,easy,,,,,,,,,,,,,
stim_set/easy-77.png,fall.png,cooperation,2.5,stand,right,easy,,,,,,,,,,,,,
stim_set/easy-538.png,stand.png,cooperation,2.5,stand,right,easy,,,,,,,,,,,,,
stim_set/hard-vcom=3-34.png,fall.png,cooperation,3.25,fall,left,hard,,,,,,,,,,,,,
stim_set/hard-vcom=4-139.png,stand.png,cooperation,2.75,fall,left,hard,,,,,,,,,,,,,
stim_set/easy-13.png,fall.png,cooperation,3.25,stand,right,easy,,,,,,,,,,,,,
stim_set/hard-280.png,stand.png,cooperation,3.25,stand,right,hard,,,,,,,,,,,,,
stim_set/hard-599.png,fall.png,cooperation,2.0,stand,right,hard,,,,,,,,,,,,,
stim_set/hard-402.png,fall.png,cooperation,3.75,stand,right,hard,,,,,,,,,,,,,
stim_set/easy-vcom=2-147.png,fall.png,cooperation,3.0,fall,left,easy,,,,,,,,,,,,,
stim_set/hard-2.png,stand.png,cooperation,3.25,stand,right,hard,,,,,,,,,,,,,
stim_set/hard-566.png,fall.png,cooperation,3.25,stand,right,hard,,,,,,,,,,,,,
stim_set/easy-590.png,fall.png,cooperation,4.0,stand,right,easy,,,,,,,,,,,,,
stim_set/easy-vcom=4-126.png,stand.png,cooperation,2.5,fall,left,easy,,,,,,,,,,,,,
stim_set/easy-vcom=2-94.png,stand.png,cooperation,4.0,fall,left,easy,,,,,,,,,,,,,
stim_set/hard-vcom=2-147.png,fall.png,cooperation,2.5,fall,left,hard,,,,,,,,,,,,,
stim_set/easy-411.png,stand.png,cooperation,2.0,stand,right,easy,,,,,,,,,,,,,
stim_set/hard-vcom=3-7.png,fall.png,cooperation,2.75,fall,left,hard,,,,,,,,,,,,,
stim_set/hard-14.png,fall.png,cooperation,2.5,stand,right,hard,,,,,,,,,,,,,
stim_set/hard-49.png,stand.png,cooperation,3.0,stand,right,hard,,,,,,,,,,,,,
stim_set/hard-82.png,fall.png,cooperation,2.25,stand,right,hard,,,,,,,,,,,,,
stim_set/hard-492.png,stand.png,cooperation,2.25,stand,right,hard,,,,,,,,,,,,,
stim_set/hard-345.png,stand.png,cooperation,2.25,stand,right,hard,,,,,,,,,,,,,
stim_set/hard-40.png,fall.png,cooperation,3.0,stand,right,hard,,,,,,,,,,,,,
stim_set/easy-vcom=2-3.png,stand.png,cooperation,3.75,fall,left,easy,,,,,,,,,,,,,
stim_set/hard-vcom=1-50.png,stand.png,cooperation,4.0,fall,left,hard,,,,,,,,,,,,,
stim_set/hard-vcom=1-30.png,fall.png,cooperation,2.5,fall,left,hard,,,,,,,,,,,,,
stim_set/hard-369.png,stand.png,cooperation,2.5,stand,right,hard,,,,,,,,,,,,,
stim_set/hard-vcom=1-3.png,stand.png,cooperation,2.25,fall,left,hard,,,,,,,,,,,,,
stim_set/easy-vcom=4-69.png,fall.png,cooperation,4.0,fall,left,easy,,,,,,,,,,,,,
stim_set/easy-344.png,stand.png,cooperation,2.75,stand,right,easy,,,,,,,,,,,,,
stim_set/hard-564.png,fall.png,cooperation,2.25,stand,right,hard,,,,,,,,,,,,,
stim_set/hard-vcom=3-142.png,stand.png,cooperation,4.0,fall,left,hard,,,,,,,,,,,,,
stim_set/hard-382.png,stand.png,cooperation,3.75,stand,right,hard,,,,,,,,,,,,,
stim_set/hard-vcom=4-75.png,fall.png,cooperation,2.0,fall,left,hard,,,,,,,,,,,,,
stim_set/hard-321.png,fall.png,cooperation,2.25,stand,right,hard,,,,,,,,,,,,,
stim_set/hard-vcom=2-20.png,stand.png,cooperation,2.0,fall,left,hard,,,,,,,,,,,,,
stim_set/hard-vcom=4-23.png,fall.png,cooperation,3.0,fall,left,hard,,,,,,,,,,,,,
stim_set/hard-vcom=1-136.png,stand.png,cooperation,2.75,fall,left,hard,,,,,,,,,,,,,
stim_set/hard-vcom=1-95.png,fall.png,cooperation,2.5,fall,left,hard,,,,,,,,,,,,,
stim_set/easy-vcom=1-12.png,stand.png,cooperation,2.25,fall,left,easy,,,,,,,,,,,,,
stim_set/hard-vcom=2-137.png,stand.png,cooperation,2.25,fall,left,hard,,,,,,,,,,,,,
stim_set/hard-vcom=2-16.png,fall.png,cooperation,2.25,fall,left,hard,,,,,,,,,,,,,
stim_set/hard-vcom=2-100.png,stand.png,cooperation,4.0,fall,left,hard,,,,,,,,,,,,,
stim_set/hard-441.png,fall.png,cooperation,2.0,stand,right,hard,,,,,,,,,,,,,
stim_set/hard-vcom=3-82.png,fall.png,cooperation,2.5,fall,left,hard,,,,,,,,,,,,,
stim_set/hard-549.png,stand.png,cooperation,2.25,stand,right,hard,,,,,,,,,,,,,
stim_set/hard-391.png,stand.png,cooperation,2.75,stand,right,hard,,,,,,,,,,,,,
stim_set/hard-367.png,fall.png,cooperation,3.75,stand,right,hard,,,,,,,,,,,,,
stim_set/easy-vcom=4-19.png,fall.png,cooperation,2.25,fall,left,easy,,,,,,,,,,,,,
stim_set/hard-vcom=4-80.png,stand.png,cooperation,4.0,fall,left,hard,,,,,,,,,,,,,
stim_set/hard-vcom=4-142.png,fall.png,cooperation,2.25,fall,left,hard,,,,,,,,,,,,,
stim_set/hard-21.png,fall.png,cooperation,2.5,stand,right,hard,,,,,,,,,,,,,
stim_set/easy-vcom=3-38.png,stand.png,cooperation,2.25,fall,left,easy,,,,,,,,,,,,,
stim_set/easy-vcom=3-142.png,fall.png,cooperation,3.25,fall,left,easy,,,,,,,,,,,,,
stim_set/easy-164.png,stand.png,cooperation,3.75,stand,right,easy,,,,,,,,,,,,,
stim_set/hard-316.png,fall.png,cooperation,2.5,stand,right,hard,,,,,,,,,,,,,
stim_set/hard-vcom=4-92.png,stand.png,cooperation,2.25,fall,left,hard,,,,,,,,,,,,,
stim_set/hard-78.png,fall.png,cooperation,2.25,stand,right,hard,,,,,,,,,,,,,
stim_set/easy-280.png,stand.png,cooperation,3.0,stand,right,easy,,,,,,,,,,,,,
stim_set/easy-vcom=1-87.png,fall.png,cooperation,2.5,fall,left,easy,,,,,,,,,,,,,
stim_set/easy-vcom=1-145.png,stand.png,cooperation,3.75,fall,left,easy,,,,,,,,,,,,,
stim_set/hard-91.png,fall.png,cooperation,3.75,stand,right,hard,,,,,,,,,,,,,
stim_set/hard-182.png,stand.png,cooperation,2.75,stand,right,hard,,,,,,,,,,,,,
stim_set/hard-177.png,stand.png,cooperation,2.0,stand,right,hard,,,,,,,,,,,,,
stim_set/hard-132.png,fall.png,cooperation,3.0,stand,right,hard,,,,,,,,,,,,,
stim_set/hard-vcom=2-110.png,fall.png,cooperation,2.5,fall,left,hard,,,,,,,,,,,,,
stim_set/hard-214.png,fall.png,cooperation,3.25,stand,right,hard,,,,,,,,,,,,,
stim_set/hard-334.png,stand.png,cooperation,2.75,stand,right,hard,,,,,,,,,,,,,
stim_set/hard-vcom=1-130.png,fall.png,cooperation,2.5,fall,left,hard,,,,,,,,,,,,,
stim_set/hard-7.png,stand.png,cooperation,2.75,stand,right,hard,,,,,,,,,,,,,
stim_set/hard-vcom=4-147.png,fall.png,cooperation,3.25,fall,left,hard,,,,,,,,,,,,,
stim_set/easy-vcom=4-126.png,stand.png,competition,3.0,fall,left,easy,0.0001624590076971799,0.0007760000007692724,9.15904875000706,incorrect,4.116883374997997,stand,right,2,15.63607750000665,,,,1.0134100840077735
stim_set/easy-280.png,stand.png,competition,3.75,stand,right,easy,,15.636857917008456,24.790350125011173,correct,4.114778542003478,stand,right,5,31.69026712499908,,,,16.647385125004803
stim_set/hard-321.png,fall.png,competition,3.0,stand,right,hard,,31.690792584005976,38.175396417005686,incorrect,1.4499556250084424,fall,left,5,43.83573708400945,,,,32.70256250000966
stim_set/hard-vcom=2-147.png,stand.png,competition,2.0,fall,left,hard,,43.836279959010426,50.95689575000142,correct,2.0867207080009393,fall,left,4,56.65243950000149,,,,44.84690962500463
stim_set/hard-2.png,fall.png,competition,2.75,stand,right,hard,,56.65302170900395,65.24181170899828,incorrect,3.551845083013177,fall,left,3,71.68363104200398,,,,57.66361266700551
stim_set/easy-vcom=2-3.png,fall.png,competition,2.5,fall,left,easy,,71.68418125000608,78.34012037501088,correct,1.6146203329990385,fall,left,4,84.47286783400341,,,,72.69471829201211
stim_set/hard-21.png,stand.png,competition,2.25,stand,right,hard,,84.4734327920014,93.17339366700617,incorrect,3.662406584000564,fall,left,3,99.0709271250089,,,,85.48399854201125
stim_set/easy-vcom=1-12.png,fall.png,competition,2.75,fall,left,easy,,99.07149558400852,106.34840408401215,correct,2.234626917008427,fall,left,4,111.78492833400378,,,,100.08167579201108
stim_set/easy-vcom=2-147.png,stand.png,competition,2.5,fall,left,easy,,111.78555729200889,118.4082395840087,correct,1.586539208990871,fall,left,5,124.0156948750082,,,,112.79666600000928
stim_set/hard-367.png,fall.png,competition,3.0,stand,right,hard,,124.0162620839983,132.1749035420071,incorrect,3.12480816700554,fall,left,4,138.48456158400222,,,,125.02645679200941
stim_set/hard-vcom=4-80.png,stand.png,competition,2.5,fall,left,hard,,138.48510325000098,145.44007787499868,correct,1.911752041996806,fall,left,4,150.46316404201207,,,,139.49568633400486
stim_set/hard-82.png,stand.png,competition,2.25,stand,right,hard,,150.46372095900006,158.99008758401033,correct,3.485370291993604,stand,right,2,163.60492958400573,,,,151.47446583400597
stim_set/easy-vcom=4-19.png,fall.png,competition,2.0,fall,left,easy,,163.60548087500501,171.95664175000275,incorrect,3.3094174590078183,stand,right,2,176.9151201670029,,,,164.6156504170067
stim_set/hard-7.png,fall.png,competition,2.0,stand,right,hard,,176.91564391700376,183.07305066700792,incorrect,1.1145915410015732,fall,left,5,187.5792450000008,,,,177.925999375002
stim_set/easy-vcom=3-142.png,stand.png,competition,2.5,fall,left,easy,,187.57976475000032,195.731551667006,correct,3.1107928749988787,fall,left,3,200.70286908400885,,,,188.59038770900224
stim_set/easy-vcom=3-74.png,fall.png,competition,2.25,fall,left,easy,,200.70337729201128,209.10661791700113,correct,3.362265625008149,fall,left,3,213.74149479200423,,,,201.7136410420062
stim_set/hard-vcom=2-16.png,stand.png,competition,2.25,fall,left,hard,,213.74203987501096,222.9731528340053,incorrect,4.1883743749931455,stand,right,2,227.48513295900193,,,,214.7522852920083
stim_set/hard-vcom=4-139.png,fall.png,competition,2.5,fall,left,hard,,227.48568533400248,234.71642470901133,correct,2.19699108300847,fall,left,3,240.20721270900685,,,,228.49636220899993
stim_set/hard-vcom=4-147.png,fall.png,competition,2.5,fall,left,hard,,240.2077516670106,247.88958687501145,correct,2.6391105000075186,fall,left,4,253.1432082500105,,,,241.2182200840034
stim_set/easy-vcom=1-87.png,stand.png,competition,2.5,fall,left,easy,,253.14380879201053,261.523498709008,correct,3.3369050420005806,fall,left,4,268.30434508400504,,,,254.15415462500823
stim_set/easy-vcom=4-69.png,fall.png,competition,3.0,fall,left,easy,,268.3048981669999,278.35656883400225,incorrect,,,,,283.46395450001,,,,269.31496566699934
stim_set/hard-316.png,fall.png,competition,3.75,stand,right,hard,,283.4645345000026,289.9648321249988,incorrect,1.4628515420045005,fall,left,4,296.06562275000033,,,,284.47506599999906
stim_set/easy-13.png,stand.png,competition,2.25,stand,right,easy,,296.06616033401224,302.2828790420026,correct,1.1787694160011597,stand,right,4,307.65389954201237,,,,297.07704295900476
stim_set/hard-182.png,stand.png,competition,2.25,stand,right,hard,,307.65442662499845,313.74815737501194,incorrect,1.0609212920098798,fall,left,5,318.8458319170022,,,,308.66524604200094
stim_set/hard-vcom=4-92.png,fall.png,competition,3.75,fall,left,hard,,318.8465346669982,325.53314916700765,correct,1.648337790989899,fall,left,3,332.0324154590053,,,,319.85690233400965
stim_set/hard-564.png,stand.png,competition,4.0,stand,right,hard,,332.033045084012,338.5398240000068,incorrect,1.4648053749988321,fall,left,5,345.4911729590094,,,,333.0439757090062
stim_set/hard-vcom=1-3.png,stand.png,competition,2.5,fall,left,hard,,345.4919805420068,351.77469658400514,correct,1.247313582993229,fall,left,5,357.44868875000975,,,,346.50270704200375
stim_set/easy-164.png,fall.png,competition,2.5,stand,right,easy,,357.44921154199983,365.2314022089995,correct,2.74012670799857,stand,right,3,370.0790437920077,,,,358.45925908400386
stim_set/hard-vcom=1-50.png,fall.png,competition,3.75,fall,left,hard,,370.0795930000022,376.9813595840096,correct,1.8590725410031155,fall,left,4,383.9302608750004,,,,371.0898787090118
stim_set/hard-vcom=1-95.png,fall.png,competition,2.25,fall,left,hard,,383.93088700000953,390.95640037499834,correct,1.9867185420007445,fall,left,3,395.86067695901147,,,,384.9419376670121
stim_set/hard-280.png,fall.png,competition,2.5,stand,right,hard,,395.8612228340062,404.624373292012,incorrect,3.726135916993371,fall,left,2,409.7435048750049,,,,396.8717294590024
stim_set/hard-14.png,stand.png,competition,4.0,stand,right,hard,,409.74403612500464,416.739651625001,incorrect,1.9633726669999305,fall,left,3,423.02669991699804,,,,410.7544212920038
stim_set/hard-78.png,fall.png,competition,2.5,stand,right,hard,,423.0272385420103,429.24193133400695,incorrect,1.1782401670061518,fall,left,3,436.04306075000204,,,,424.03758112501237
stim_set/hard-91.png,fall.png,competition,2.0,stand,right,hard,,436.0437824170076,445.64820066701213,correct,4.564794249992701,stand,right,2,450.0111372500105,,,,437.05375208400073
stim_set/hard-vcom=1-30.png,stand.png,competition,2.75,fall,left,hard,,450.01188087501214,456.62515408400213,correct,1.580061749991728,fall,left,4,461.96970266700373,,,,451.02298366700415
stim_set/hard-vcom=2-137.png,fall.png,competition,3.0,fall,left,hard,,461.9702180840104,469.16469141701236,correct,2.157377916999394,fall,left,3,475.33278770900506,,,,462.98090145899914
stim_set/hard-vcom=1-130.png,fall.png,competition,3.25,fall,left,hard,,475.3333724170079,482.7813700000115,correct,2.4101969999901485,fall,left,5,488.78862500000105,,,,476.3440597500012
stim_set/hard-vcom=4-23.png,stand.png,competition,3.25,fall,left,hard,,488.7891654170089,497.1896732919995,correct,3.3614525419980055,fall,left,3,503.47665525000775,,,,489.79954045900377
stim_set/hard-vcom=3-34.png,stand.png,competition,2.5,fall,left,hard,,503.4772919590032,512.1813101250009,incorrect,3.6602360830002,stand,right,3,516.9829540420033,,,,504.4880328750005
stim_set/hard-441.png,fall.png,competition,4.0,stand,right,hard,,516.9835067920067,525.2313495840062,correct,3.211800541001139,stand,right,2,531.7869299590093,531.7872583340068,,,517.9933097920002
stim_set/hard-244.png,stand.png,competition,4.0,stand,right,hard,541.3146407090098,541.3153613750037,548.847893875005,incorrect,2.48199066700181,fall,left,3,555.6997130840027,,,,542.3336221670033
stim_set/hard-vcom=3-7.png,stand.png,competition,2.25,fall,left,hard,,555.7003302090015,561.9978910000063,correct,1.259117374997004,fall,left,5,566.8691230420081,,,,556.7107826670108
stim_set/easy-411.png,stand.png,competition,2.25,stand,right,easy,,566.8696506670094,573.8478687919996,correct,1.9357817499985686,stand,right,4,578.4687987090001,,,,567.879864167
stim_set/hard-vcom=2-20.png,fall.png,competition,3.75,fall,left,hard,,578.4693630000111,584.833532500008,correct,1.326694208997651,fall,left,4,592.0741488339991,,,,579.4793702090101
stim_set/easy-vcom=2-94.png,stand.png,competition,4.0,fall,left,easy,,592.0747422920103,600.114590541998,correct,3.0004484999954,fall,left,3,606.4269105840067,,,,593.0857928750047
stim_set/hard-vcom=3-110.png,fall.png,competition,2.5,fall,left,hard,,606.4275455840107,612.5478755840013,correct,1.0879300410015276,fall,left,5,617.5666504590044,,,,607.4378246670094
stim_set/hard-vcom=1-136.png,fall.png,competition,3.25,fall,left,hard,,617.5672090840089,624.0496120000025,correct,1.4485292909957934,fall,left,4,630.670407084006,,,,618.5777095000085
stim_set/hard-vcom=2-100.png,stand.png,competition,2.75,fall,left,hard,,630.6709272919979,637.6976595000015,correct,1.9877988749940414,fall,left,3,644.3938306250056,,,,631.6813010000042
stim_set/easy-vcom=3-15.png,stand.png,competition,3.0,fall,left,easy,,644.3944709589996,653.007379542003,incorrect,3.5795743339986075,stand,right,2,658.322647375011,,,,645.4050178340112
stim_set/easy-590.png,fall.png,competition,4.0,stand,right,easy,,658.3232325420104,664.8811883340095,correct,1.513438916997984,stand,right,4,672.4602458750014,,,,659.3333327920118
stim_set/hard-600.png,stand.png,competition,2.25,stand,right,hard,,672.4607994170074,679.6061289589998,incorrect,2.1127699579956243,fall,left,5,684.7324089590111,,,,673.4716339170118
stim_set/hard-40.png,fall.png,competition,2.25,stand,right,hard,,684.7332219590025,691.0744855840021,incorrect,1.3046766250045039,fall,left,4,699.1845949170092,,,,685.7439080840122
stim_set/easy-vcom=1-73.png,stand.png,competition,4.0,fall,left,easy,,699.1852143750002,705.2408445420006,correct,1.0282324170111679,fall,left,3,711.5076069589995,,,,700.1955897090083
stim_set/hard-492.png,fall.png,competition,2.25,stand,right,hard,,711.5082177920121,718.2644145840022,incorrect,1.7163055419950979,fall,left,4,724.59268875001,,,,712.518290292006
stim_set/hard-382.png,stand.png,competition,2.0,stand,right,hard,,724.5932612500037,731.3644017090119,incorrect,1.7385807079990627,fall,left,3,736.0187887089996,,,,725.6036007920047
stim_set/hard-vcom=2-110.png,fall.png,competition,2.25,fall,left,hard,,736.0193521250039,742.4247233750066,correct,1.373599209007807,fall,left,3,750.0853776250005,,,,737.0295173750055
stim_set/hard-334.png,stand.png,competition,3.25,stand,right,hard,,750.0859104999981,759.2560995420063,incorrect,4.133010749996174,fall,left,3,767.1262550000101,,,,751.0967915420042
stim_set/hard-49.png,fall.png,competition,3.75,stand,right,hard,,767.1267756250018,773.7060907920095,incorrect,1.535838458003127,fall,left,4,779.8246871250012,,,,768.1369344590057
stim_set/hard-vcom=4-142.png,fall.png,competition,2.75,fall,left,hard,,779.8254147920088,789.2826916670019,incorrect,4.423616291998769,stand,right,2,794.328336999999,,,,780.8355235000054
stim_set/hard-vcom=3-145.png,stand.png,competition,4.0,fall,left,hard,,794.3289290420071,804.0226822090044,correct,4.661108416999923,fall,left,3,810.3223333339993,,,,795.3397558340075
stim_set/hard-345.png,fall.png,competition,3.25,stand,right,hard,,810.3229247499985,817.8726267919992,incorrect,2.5119058749987744,fall,left,3,823.7648917920014,,,,811.333162875002
stim_set/hard-599.png,stand.png,competition,2.25,stand,right,hard,,823.7656628750119,831.9061014170002,incorrect,3.1078397920064162,fall,left,3,837.2371224170056,,,,824.7763063340099
stim_set/hard-549.png,fall.png,competition,2.75,stand,right,hard,,837.2377633340075,845.114386375004,incorrect,2.8369302920036716,fall,left,2,851.8179236249998,,,,838.2477999170078
stim_set/hard-177.png,stand.png,competition,3.75,stand,right,hard,,851.8185437920038,858.1643579590018,incorrect,1.3126527080021333,fall,left,3,869.076042042012,,,,852.8292970840121
stim_set/easy-vcom=1-145.png,fall.png,competition,2.5,fall,left,easy,,869.0765983340098,874.8060800000094,correct,0.6890834160003578,fall,left,4,881.0793732090096,,,,870.0872071250051
stim_set/hard-214.png,stand.png,competition,2.0,stand,right,hard,,881.0799416670052,889.190435084005,incorrect,3.07297516700055,fall,left,4,893.5466625000117,,,,882.0906036670058
stim_set/easy-538.png,fall.png,competition,2.5,stand,right,easy,,893.5472190420114,899.872707750008,correct,1.288615249999566,stand,right,5,905.1189234170015,,,,894.5578359170031
stim_set/hard-vcom=4-75.png,stand.png,competition,3.25,fall,left,hard,,905.1194965840114,913.4479010000068,incorrect,3.28591525000229,stand,right,2,919.5724147500005,,,,906.129815459004
stim_set/hard-vcom=3-82.png,fall.png,competition,2.25,fall,left,hard,,919.572970209003,925.6476567920035,correct,1.0338735840050504,fall,left,4,930.6528595840064,,,,920.5833490840014
stim_set/hard-570.png,stand.png,competition,2.0,stand,right,hard,,930.653420542003,938.3908181670122,incorrect,2.699987333995523,fall,left,4,943.3545675420028,,,,931.6636499590095
stim_set/hard-566.png,fall.png,competition,3.75,stand,right,hard,,943.3552780840109,949.4561177920114,incorrect,1.0577369160018861,fall,left,4,955.832252334003,,,,944.3651438340021
stim_set/hard-vcom=3-142.png,stand.png,competition,2.75,fall,left,hard,,955.8328742500016,964.8392635420023,correct,3.963299583992921,fall,left,3,972.49253662501,,,,956.8438103340013
stim_set/easy-vcom=3-38.png,stand.png,competition,2.5,fall,left,easy,,972.4930918340106,980.7327590000059,correct,3.2016892920073587,fall,left,3,985.7431707920041,,,,973.503837042008
stim_set/easy-77.png,fall.png,competition,2.0,stand,right,easy,,985.7437965420104,992.3476240419986,correct,1.5649804170097923,stand,right,5,997.05068983401,,,,986.7543090420077
stim_set/easy-vcom=2-20.png,fall.png,competition,3.0,fall,left,easy,,997.051233834005,1006.1226311670034,correct,4.03323829099827,fall,left,2,1014.7595783340075,,,,998.0615168750082
stim_set/hard-402.png,stand.png,competition,2.25,stand,right,hard,,1014.7602072500013,1021.6893410420016,incorrect,1.8868743339990033,fall,left,4,1026.3326527090103,,,,1015.7710603340092
stim_set/hard-369.png,fall.png,competition,3.0,stand,right,hard,,1026.3331868340028,1034.6724923750007,correct,3.3074577919906005,stand,right,3,1040.6746242090012,,,,1027.3432589170116
stim_set/easy-344.png,fall.png,competition,3.25,stand,right,easy,,1040.675219459008,1048.8822895420017,incorrect,3.1742260830069426,fall,left,2,1054.9008238750102,,,,1041.6857246250001
stim_set/hard-391.png,stand.png,competition,3.25,stand,right,hard,,1054.9013589590031,1061.297392959008,incorrect,1.357370040990645,fall,left,4,1067.532590917006,,,,1055.912054542001
stim_set/hard-132.png,fall.png,competition,2.75,stand,right,hard,,1067.5331408750062,1074.5908049170102,incorrect,2.0238177920109592,fall,left,3,1080.0337111670087,1080.0340467920032,,,1068.5436726250045
stim_set/hard-410.png,stand.png,cooperation,3.75,stand,right,hard,,,,,,,,,,,,,
stim_set/hard-188.png,stand.png,competition,4.0,stand,right,hard,2.874992787837982e-06,0.002170084000681527,7.904769583998132,incorrect,2.8921332500030985,fall,left,3,18.803329874994233,18.803835208993405,,,1.0157426669902634
