towers,bet,condition,iti,corr_choice,corr_key,difficulty,block_start,trial_start,stim_on,acc,rt,part_choice,part_key,confidence,trial_end,block_end,updated_score,condition_first,cue_on,condition_second
stim_set/easy-vcom=3-142.png,none.png,unmotivated,2.75,fall,left,easy,3.166000169585459e-06,0.006617125000047963,2.800498583001172,correct,2.735748416000206,fall,left,3.0,8.179807000000437,,220.0,competition,,cooperation
stim_set/hard-vcom=4-75.png,none.png,unmotivated,2.5,fall,left,hard,,8.181076916000166,9.975539833001676,correct,1.7386600419995375,fall,left,5.0,16.176649125000036,,465.0,,,
stim_set/hard-391.png,none.png,unmotivated,2.25,stand,right,hard,,16.177285416000814,17.417578458000207,incorrect,1.1873367500011227,fall,left,5.0,22.134444041001192,,685.0,,,
stim_set/hard-564.png,none.png,unmotivated,3.75,stand,right,hard,,22.13502320800035,23.43561304100149,incorrect,1.2501663749990255,fall,left,5.0,29.69003995800085,,,,,
stim_set/hard-244.png,none.png,unmotivated,3.25,stand,right,hard,,29.6907632500006,33.54377958300029,incorrect,3.8014434579999934,fall,left,4.0,39.805707791001616,,,,,
stim_set/hard-334.png,none.png,unmotivated,2.0,stand,right,hard,,39.80624833300135,41.77738908300125,incorrect,1.9251924170002888,fall,left,5.0,46.43649025000013,,,,,
stim_set/easy-vcom=1-87.png,none.png,unmotivated,3.0,fall,left,easy,,46.437261500001114,51.00059279100061,incorrect,4.5072926659995565,stand,right,2.0,56.715881583000744,,,,,
stim_set/easy-vcom=2-20.png,none.png,unmotivated,2.25,fall,left,easy,,56.716692125000925,57.61073670800032,correct,0.8469150830005674,fall,left,5.0,62.343376500000886,,,,,
stim_set/hard-599.png,none.png,unmotivated,3.0,stand,right,hard,,62.343982041000345,65.72581429100137,incorrect,3.3359795420001315,fall,left,4.0,71.3319297500002,,,,,
stim_set/easy-vcom=1-73.png,none.png,unmotivated,2.5,fall,left,easy,,71.33249591599997,75.55226025000047,incorrect,4.178504999999859,stand,right,3.0,80.53661333300079,,,,,
stim_set/easy-344.png,none.png,unmotivated,4.0,stand,right,easy,,80.5373451250016,81.86047295800017,correct,1.2769133749989123,stand,right,4.0,88.3408515830015,,,,,
stim_set/easy-538.png,none.png,unmotivated,2.5,stand,right,easy,,88.34140954100077,89.82578929100053,correct,1.4334745000014664,stand,right,5.0,96.05731062500126,,,,,
stim_set/hard-78.png,none.png,unmotivated,2.25,stand,right,hard,,96.05787333300032,97.30080087500029,incorrect,1.1879866670005867,fall,left,5.0,102.66308200000094,,,,,
stim_set/easy-280.png,none.png,unmotivated,3.0,stand,right,easy,,102.66367970800093,104.0353692910012,correct,1.32485962499959,stand,right,5.0,109.6685738750002,,,,,
stim_set/easy-vcom=3-38.png,none.png,unmotivated,2.5,fall,left,easy,,109.66919358300038,110.85905895800173,correct,1.1333245830010128,fall,left,5.0,115.90498975000082,,,,,
stim_set/hard-vcom=3-82.png,none.png,unmotivated,2.25,fall,left,hard,,115.90556608299994,117.00074608300021,correct,1.0400257910005166,fall,left,5.0,121.6464242910006,,,,,
stim_set/hard-vcom=4-23.png,none.png,unmotivated,2.5,fall,left,hard,,121.64700175000144,123.20919058300024,correct,1.5098389590002623,fall,left,5.0,128.14484533300129,,,,,
stim_set/easy-vcom=4-69.png,none.png,unmotivated,2.25,fall,left,easy,,128.1454007500015,132.38404904100022,correct,4.183144167000137,fall,left,4.0,136.95853304100092,,,,,
stim_set/hard-vcom=3-34.png,none.png,unmotivated,2.0,fall,left,hard,,136.95907812500081,138.8006191250006,correct,1.7847398750000143,fall,left,5.0,144.2376639580016,,,,,
stim_set/hard-492.png,none.png,unmotivated,2.0,stand,right,hard,,144.23836770800153,149.31039504100045,incorrect,,,,,154.209197958,,,,,
stim_set/hard-600.png,none.png,unmotivated,2.5,stand,right,hard,,154.20986645800076,155.94255683300068,incorrect,1.686028250000163,fall,left,5.0,161.56165862500166,,,,,
stim_set/hard-316.png,none.png,unmotivated,2.0,stand,right,hard,,161.56221608300075,164.5106324160006,incorrect,2.9020253329999828,fall,left,4.0,170.42073237500153,,,,,
stim_set/hard-vcom=2-20.png,none.png,unmotivated,2.25,fall,left,hard,,170.4213445410005,171.6592966250009,correct,1.1818014170003153,fall,left,5.0,176.3507421250015,,,,,
stim_set/easy-vcom=4-126.png,none.png,unmotivated,2.5,fall,left,easy,,176.35143491600135,177.60285308300078,incorrect,1.1994018749992392,stand,right,3.0,182.80254466600127,,,,,
stim_set/easy-77.png,none.png,unmotivated,3.0,stand,right,easy,,182.80311112500016,184.552498291001,correct,1.7024680829999852,stand,right,5.0,190.17201566600124,,,,,
stim_set/hard-vcom=3-110.png,none.png,unmotivated,3.0,fall,left,hard,,190.17252304100109,192.6094301660014,correct,2.390572207999867,fall,left,5.0,198.14868087500145,,,,,
stim_set/easy-vcom=2-3.png,none.png,unmotivated,4.0,fall,left,easy,,198.1492122910004,202.4771232500006,incorrect,4.279207875000793,stand,right,2.0,209.0850308330009,,,,,
stim_set/hard-vcom=2-100.png,none.png,unmotivated,3.25,fall,left,hard,,209.0856796660009,211.1760536660004,correct,2.0372879169990483,fall,left,5.0,217.67106737500043,,,,,
stim_set/hard-367.png,none.png,unmotivated,2.5,stand,right,hard,,217.67162704100159,220.5342866660012,incorrect,2.810064125000281,fall,left,3.0,225.42432991600072,,,,,
stim_set/easy-vcom=3-15.png,none.png,unmotivated,2.25,fall,left,easy,,225.42489812500025,228.2843434160004,incorrect,2.8070826249986567,stand,right,3.0,232.91857591600086,,,,,
stim_set/hard-402.png,none.png,unmotivated,2.5,stand,right,hard,,232.91913550000027,235.50929966600052,correct,2.534736833000352,stand,right,3.0,240.36820100000114,,,,,
stim_set/hard-82.png,none.png,unmotivated,3.75,stand,right,hard,,240.3687252500004,241.83436400000028,incorrect,1.4107767500008777,fall,left,4.0,248.6987310830009,,,,,
stim_set/hard-vcom=1-3.png,none.png,unmotivated,2.75,fall,left,hard,,248.69926908300118,251.0677415830014,correct,2.3139664999998786,fall,left,4.0,257.07672154100146,,,,,
stim_set/hard-14.png,none.png,unmotivated,3.25,stand,right,hard,,257.0772665000004,259.1845940830008,incorrect,2.060659709000902,fall,left,4.0,264.86194758300013,,,,,
stim_set/hard-345.png,none.png,unmotivated,2.5,stand,right,hard,,264.86257725,267.4116473330014,correct,2.5014342079994094,stand,right,4.0,272.4800950410008,,,,,
stim_set/easy-13.png,none.png,unmotivated,2.5,stand,right,easy,,272.4807029580006,274.3506958329999,correct,1.8133364580007765,stand,right,4.0,279.248772125,,,,,
stim_set/hard-382.png,none.png,unmotivated,2.75,stand,right,hard,,279.2493386660008,282.55952270800117,correct,3.26418516600097,stand,right,2.0,289.0273070000003,,,,,
stim_set/hard-549.png,none.png,unmotivated,3.25,stand,right,hard,,289.0279302910003,292.15320991600134,correct,3.0759799169991315,stand,right,3.0,297.92714829100083,,,,,
stim_set/hard-vcom=3-7.png,none.png,unmotivated,2.75,fall,left,hard,,297.9278050000012,300.86782170800143,correct,2.887337624999418,fall,left,4.0,305.94658541600074,,,,,
stim_set/hard-vcom=4-92.png,none.png,unmotivated,2.75,fall,left,hard,,305.94720908300036,310.1777652910005,incorrect,4.179089291999844,stand,right,3.0,315.3792777910004,315.3796086250004,,,,
stim_set/easy-vcom=1-145.png,none.png,unmotivated,3.75,fall,left,easy,338.01197195800165,338.0127768750008,339.80107025000143,correct,1.7336300419992767,fall,left,4.0,345.80237566600044,,,,,
stim_set/hard-40.png,none.png,unmotivated,3.0,stand,right,hard,,345.8029811660016,347.47785012500015,incorrect,1.6249295839988918,fall,left,4.0,353.28392570800133,,,,,
stim_set/hard-21.png,none.png,unmotivated,4.0,stand,right,hard,,353.2844944160006,355.80122570800086,correct,2.4639745830008906,stand,right,2.0,362.06819695800004,,,,,
stim_set/hard-vcom=2-16.png,none.png,unmotivated,2.5,fall,left,hard,,362.06872637500055,363.784562625,incorrect,1.6586805000006282,stand,right,4.0,368.58431700000085,,,,,
stim_set/hard-280.png,none.png,unmotivated,2.25,stand,right,hard,,368.58486237500085,370.6261629159999,incorrect,1.9853336249998392,fall,left,4.0,376.1514027910016,,,,,
stim_set/easy-vcom=3-74.png,none.png,unmotivated,2.25,fall,left,easy,,376.151916666,379.2781568750015,correct,3.075349583999924,fall,left,4.0,383.8309127080011,,,,,
stim_set/easy-vcom=2-147.png,none.png,unmotivated,3.25,fall,left,easy,,383.8314586659999,386.0526840830007,correct,2.1720772919998126,fall,left,4.0,392.22221954100127,,,,,
stim_set/hard-vcom=1-50.png,none.png,unmotivated,3.75,fall,left,hard,,392.22276950000014,394.7526645830004,correct,2.478844291999849,fall,left,5.0,400.9866477080013,,,,,
stim_set/easy-590.png,none.png,unmotivated,2.5,stand,right,easy,,400.98727537500054,402.2763533330018,correct,1.2326421249999842,stand,right,5.0,407.16880012500036,,,,,
stim_set/easy-vcom=4-19.png,none.png,unmotivated,3.25,fall,left,easy,,407.16935708300116,408.56982050000084,incorrect,1.3491615419989105,stand,right,3.0,414.7907987080017,,,,,
stim_set/easy-164.png,none.png,unmotivated,4.0,stand,right,easy,,414.7913187080012,416.4096778330004,correct,1.5616480839998983,stand,right,4.0,422.7084988750012,,,,,
stim_set/hard-49.png,none.png,unmotivated,2.25,stand,right,hard,,422.70901483300077,425.9613804159999,correct,3.1995737080014814,stand,right,2.0,430.7668260830014,,,,,
stim_set/hard-vcom=1-130.png,none.png,unmotivated,2.25,fall,left,hard,,430.7675600410002,432.7763091659999,incorrect,1.956932499999312,stand,right,4.0,437.4228695830007,,,,,
stim_set/hard-vcom=3-145.png,none.png,unmotivated,2.75,fall,left,hard,,437.4235907910006,440.50152016600083,incorrect,3.0312769169995586,stand,right,4.0,445.89870912500015,,,,,
stim_set/easy-vcom=2-94.png,none.png,unmotivated,2.75,fall,left,easy,,445.89935875000083,448.68478720800164,correct,2.73340541700054,fall,left,5.0,455.9001222080005,,,,,
stim_set/hard-321.png,none.png,unmotivated,2.25,stand,right,hard,,455.90066275000015,460.4847715410015,incorrect,4.532278500000757,fall,left,4.0,465.4065697910009,,,,,
stim_set/hard-2.png,none.png,unmotivated,2.75,stand,right,hard,,465.4071302910015,469.6515012910004,correct,4.189245290999679,stand,right,4.0,475.210639375,,,,,
stim_set/hard-vcom=2-110.png,none.png,unmotivated,3.0,fall,left,hard,,475.21118770800064,478.3514880000001,correct,3.0893694589995,fall,left,2.0,483.90826416600066,,,,,
stim_set/hard-7.png,none.png,unmotivated,2.25,stand,right,hard,,483.9088152910009,486.6514743330008,correct,2.6850718340010644,stand,right,3.0,491.2223423330015,,,,,
stim_set/hard-570.png,none.png,unmotivated,2.25,stand,right,hard,,491.2228617910005,494.2430374579999,incorrect,2.9636890000001586,fall,left,4.0,499.24670875000083,,,,,
stim_set/hard-vcom=2-137.png,none.png,unmotivated,3.0,fall,left,hard,,499.24734145800005,500.7700474580015,incorrect,1.4769522080005115,stand,right,3.0,506.9026049160002,,,,,
stim_set/hard-177.png,none.png,unmotivated,2.0,stand,right,hard,,506.9032293330001,509.1097854160016,incorrect,2.1602782089994435,fall,left,4.0,514.0442664580005,,,,,
stim_set/hard-vcom=1-30.png,none.png,unmotivated,3.75,fall,left,hard,,514.0447896660007,517.8442726660013,incorrect,3.754446959001143,stand,right,1.0,525.2608791250004,,,,,
stim_set/hard-vcom=3-142.png,none.png,unmotivated,3.25,fall,left,hard,,525.2614260000008,526.7370611660008,incorrect,1.4235829999997804,stand,right,4.0,532.3187449160014,,,,,
stim_set/hard-vcom=4-147.png,none.png,unmotivated,2.25,fall,left,hard,,532.3194456250003,534.5348173330003,correct,2.158821375000116,fall,left,4.0,539.1353162080013,,,,,
stim_set/hard-vcom=4-139.png,none.png,unmotivated,4.0,fall,left,hard,,539.1360093750009,541.3868972079998,correct,2.203298417000042,fall,left,4.0,547.9809525410002,,,,,
stim_set/hard-vcom=2-147.png,none.png,unmotivated,2.5,fall,left,hard,,547.9814912500005,549.7097888750013,incorrect,1.6816658329989878,stand,right,2.0,554.61679525,,,,,
stim_set/easy-411.png,none.png,unmotivated,4.0,stand,right,easy,,554.6173282500004,555.9348225410013,correct,1.26132166699972,stand,right,4.0,562.7492259160008,,,,,
stim_set/hard-vcom=4-142.png,none.png,unmotivated,4.0,fall,left,hard,,562.7499310000003,564.2448620410014,incorrect,1.4468981669997447,stand,right,3.0,570.6856400410015,,,,,
stim_set/hard-369.png,none.png,unmotivated,2.0,stand,right,hard,,570.6863541250004,573.5684882080004,correct,2.8360764999997627,stand,right,4.0,577.9246950830003,,,,,
stim_set/hard-214.png,none.png,unmotivated,3.25,stand,right,hard,,577.9252329999998,581.0432894160002,incorrect,3.0614007500007574,fall,left,4.0,586.8782372080004,,,,,
stim_set/hard-441.png,none.png,unmotivated,2.5,stand,right,hard,,586.8787935409999,588.7683046250004,correct,1.8391461249993881,stand,right,3.0,593.5692349159999,,,,,
stim_set/hard-vcom=4-80.png,none.png,unmotivated,3.75,fall,left,hard,,593.5697871660013,597.370093208001,incorrect,3.748558208999384,stand,right,2.0,603.4426907910001,,,,,
stim_set/hard-132.png,none.png,unmotivated,3.75,stand,right,hard,,603.4432271660007,607.5199887080016,correct,4.029182000000219,stand,right,2.0,614.1706678330011,,,,,
stim_set/hard-566.png,none.png,unmotivated,3.75,stand,right,hard,,614.171223708001,616.5350321250007,incorrect,2.3071355829997637,fall,left,4.0,623.4510349160009,,,,,
stim_set/easy-vcom=1-12.png,none.png,unmotivated,2.0,fall,left,easy,,623.4515817080011,625.3282644160007,correct,1.8252662920003784,fall,left,4.0,629.6288788750007,,,,,
stim_set/hard-vcom=1-95.png,none.png,unmotivated,2.0,fall,left,hard,,629.629435416,632.4183461250012,incorrect,2.737137707999864,stand,right,3.0,636.6688029160014,,,,,
stim_set/hard-vcom=1-136.png,none.png,unmotivated,2.5,fall,left,hard,,636.6693607910001,639.9700245000004,correct,3.2535808749998982,fall,left,4.0,644.7448641250012,,,,,
stim_set/hard-182.png,none.png,unmotivated,4.0,stand,right,hard,,644.7454492500002,646.4362327910002,correct,1.6499244999995426,stand,right,3.0,652.8210487080014,,,,,
stim_set/hard-91.png,none.png,unmotivated,2.25,stand,right,hard,,652.8216030830007,656.1444946250012,correct,3.274012624999159,stand,right,2.0,662.625056541001,662.625395041001,,,,
stim_set/hard-391.png,stand.png,cooperation,2.75,stand,right,hard,0.000138165998578188,0.0007583329988847254,8.95460358299897,correct,3.912317582999094,stand,right,3,14.001921666000271,,,,1.0135333749985875,
stim_set/hard-382.png,fall.png,cooperation,3.75,stand,right,hard,,14.002608957998746,22.921346040999197,correct,3.8864259170004516,stand,right,2,29.011085415999332,,,,15.01282154099863,
stim_set/easy-vcom=3-38.png,stand.png,cooperation,2.25,fall,left,easy,,29.011635040998954,35.72114041599889,correct,1.665279291000843,fall,left,4,40.24594658299975,,,,30.02240241599975,
stim_set/hard-549.png,stand.png,cooperation,2.25,stand,right,hard,,40.24648070799958,46.84619945799932,incorrect,1.559701916999984,fall,left,3,51.38206866600012,,,,41.257191832999524,
stim_set/hard-492.png,fall.png,cooperation,2.25,stand,right,hard,,51.382624750000105,58.56478408299881,incorrect,2.1471297499992943,fall,left,4,63.141741374998674,,,,52.39302270799999,
stim_set/hard-2.png,stand.png,cooperation,3.25,stand,right,hard,,63.142400499998985,70.25648216599984,correct,2.076711375000741,stand,right,3,75.79065295799955,,,,64.15294962499866,
stim_set/hard-334.png,fall.png,cooperation,2.75,stand,right,hard,,75.79120562499884,82.86289295799907,incorrect,2.034056292000969,fall,left,4,87.9543994579999,,,,76.80126279099932,
stim_set/easy-vcom=1-12.png,stand.png,cooperation,2.25,fall,left,easy,,87.95494412500011,94.43787049999992,correct,1.4388716250014113,fall,left,4,98.96698933299922,,,,88.96565912499864,
stim_set/easy-280.png,fall.png,cooperation,3.0,stand,right,easy,,98.96763383299913,105.13114066599883,correct,1.1289677080003457,stand,right,5,111.21231770799932,,,,99.9778642909987,
stim_set/hard-441.png,fall.png,cooperation,2.0,stand,right,hard,,111.21285820799858,117.78788237499975,incorrect,1.5389097919996857,fall,left,4,122.04447283299851,,,,112.22286399999939,
stim_set/hard-321.png,stand.png,cooperation,2.25,stand,right,hard,,122.04508395799894,130.54596420799862,correct,3.462847000000693,stand,right,2,135.1504545409989,,,,123.05605358299908,
stim_set/hard-566.png,fall.png,cooperation,3.25,stand,right,hard,,135.15100037499906,141.40463604099932,incorrect,1.2097875840008783,fall,left,3,146.91087549999975,,,,136.16068929099856,
stim_set/hard-82.png,stand.png,cooperation,2.25,stand,right,hard,,146.9114567910001,154.14752258299995,correct,2.199014083000293,stand,right,3,158.70222904099865,,,,147.92178995799986,
stim_set/hard-vcom=4-139.png,stand.png,cooperation,2.75,fall,left,hard,,158.7029401660002,165.31465241600017,correct,1.5780240830008552,fall,left,4,170.6344022909998,,,,159.71360800000002,
stim_set/hard-vcom=1-50.png,fall.png,cooperation,4.0,fall,left,hard,,170.63494524999987,177.53788387500026,correct,1.8605773750005028,fall,left,4,183.788470083,,,,171.64484454099875,
stim_set/hard-vcom=1-3.png,fall.png,cooperation,2.25,fall,left,hard,,183.78908349999983,191.12316683300014,correct,2.299073916999987,fall,left,3,198.32010154099953,,,,184.79961454099976,
stim_set/hard-91.png,stand.png,cooperation,3.75,stand,right,hard,,198.32064737499968,206.22115737499917,correct,2.858176125000682,stand,right,4,213.02558679100002,,,,199.33148337499915,
stim_set/hard-367.png,stand.png,cooperation,3.75,stand,right,hard,,213.02631783299876,220.7395367499994,correct,2.6788854170008563,stand,right,3,226.8429312499993,,,,214.03689470799873,
stim_set/easy-vcom=4-19.png,fall.png,cooperation,2.25,fall,left,easy,,226.84347591599908,233.8817824580001,incorrect,1.9993755420000525,stand,right,4,238.5820710829994,,,,227.85358370799986,
stim_set/hard-vcom=3-34.png,stand.png,cooperation,3.25,fall,left,hard,,238.58259012499911,245.07327766599883,correct,1.4504249579986208,fall,left,3,250.56700787499904,,,,239.59302929099977,
stim_set/hard-vcom=3-110.png,stand.png,cooperation,2.0,fall,left,hard,,250.5676187909994,257.34746362499936,incorrect,1.752498125000784,stand,right,5,262.3316276249989,,,,251.5781852909986,
stim_set/hard-vcom=3-145.png,fall.png,cooperation,3.75,fall,left,hard,,262.3321384999999,270.8645212499996,incorrect,3.5029643750003743,stand,right,2,277.77195104099883,,,,263.341981915999,
stim_set/easy-411.png,stand.png,cooperation,2.0,stand,right,easy,,277.77249695799946,283.8296100409989,correct,1.0142610000002605,stand,right,4,288.13970637499915,,,,278.78317295799934,
stim_set/hard-244.png,stand.png,cooperation,2.5,stand,right,hard,,288.14030391599954,296.5213659159999,incorrect,3.3362757920003787,fall,left,3,301.3371416249993,,,,289.1513291659994,
stim_set/easy-590.png,fall.png,cooperation,4.0,stand,right,easy,,301.3376863329995,307.6565322079987,correct,1.278647125000134,stand,right,4,315.1590454999987,,,,302.34769499999857,
stim_set/hard-402.png,stand.png,cooperation,3.75,stand,right,hard,,315.15961083299953,321.2380650409996,incorrect,1.0349037500000122,fall,left,3,328.1065239999989,,,,316.1703750830002,
stim_set/hard-vcom=4-23.png,fall.png,cooperation,3.0,fall,left,hard,,328.10707708299924,336.6144357909998,incorrect,3.472620167000059,stand,right,2,342.22894520799855,,,,329.11724570799925,
stim_set/hard-vcom=1-130.png,stand.png,cooperation,2.5,fall,left,hard,,342.22950354099885,349.30648379099875,incorrect,2.043573291000939,stand,right,3,354.1207669579999,,,,343.2400793750003,
stim_set/hard-vcom=2-147.png,stand.png,cooperation,2.5,fall,left,hard,,354.1213220409991,361.4814509159987,correct,2.330962542000634,fall,left,4,366.0325879159991,,,,355.13158099999964,
stim_set/hard-vcom=4-142.png,fall.png,cooperation,2.25,fall,left,hard,,366.03318758299974,374.46472920799897,incorrect,3.3971168330008368,stand,right,3,379.01500708299864,,,,367.04430733299887,
stim_set/easy-vcom=3-15.png,stand.png,cooperation,3.0,fall,left,easy,,379.0155809579992,385.7131700409991,incorrect,1.6589142920001905,stand,right,2,391.06036254099854,,,,380.02614520799943,
stim_set/hard-316.png,stand.png,cooperation,2.5,stand,right,hard,,391.06095645799905,397.51308445799987,incorrect,1.4137048329994286,fall,left,3,402.3201536249999,,,,392.0715312499997,
stim_set/easy-vcom=4-126.png,stand.png,cooperation,2.5,fall,left,easy,,402.3208715410001,410.74615408299906,incorrect,3.383305625000503,stand,right,4,415.52786899999955,,,,403.33137845799865,
stim_set/easy-13.png,fall.png,cooperation,3.25,stand,right,easy,,415.52841529099896,421.62316145799923,correct,1.055714291998811,stand,right,4,427.24709962499946,,,,416.5386603329989,
stim_set/easy-vcom=3-142.png,fall.png,cooperation,3.25,fall,left,easy,,427.24765845799993,434.62963933299943,correct,2.3397324590005155,fall,left,4,440.4700714999999,,,,428.2578916659986,
stim_set/hard-280.png,stand.png,cooperation,3.25,stand,right,hard,,440.47069016599926,446.70483658299963,incorrect,1.1901987080000254,fall,left,4,452.2466679999998,,,,441.48135170800015,
stim_set/easy-vcom=1-145.png,stand.png,cooperation,3.75,fall,left,easy,,452.24724616599997,458.54651945799924,correct,1.2589382920014032,fall,left,3,465.0418787910003,,,,453.25769299999956,
stim_set/hard-vcom=4-75.png,fall.png,cooperation,2.0,fall,left,hard,,465.04241216599985,472.1464054579992,incorrect,2.0609786250006437,stand,right,2,476.54863991599996,,,,466.05246199999965,
stim_set/hard-vcom=2-100.png,fall.png,cooperation,4.0,fall,left,hard,,476.5492092079985,483.73814024999956,correct,2.1481565419999242,fall,left,4,490.1890979999989,,,,477.5596432080001,
stim_set/hard-177.png,stand.png,cooperation,2.0,stand,right,hard,,490.18961708299867,498.9299127079994,correct,3.707710999999108,stand,right,2,503.3176679999997,503.3180012499997,,,491.2004327909999,
stim_set/easy-vcom=2-3.png,fall.png,cooperation,3.75,fall,left,easy,522.0206282079998,522.021389915999,528.9299039580001,correct,1.865034750000632,fall,left,2,535.0351706249985,,,,523.0331905000003,
stim_set/hard-vcom=4-92.png,fall.png,cooperation,2.25,fall,left,hard,,535.035889249999,541.5214588749986,incorrect,1.4428369170000224,stand,right,3,546.2867079579992,,,,536.0464761659987,
stim_set/easy-164.png,stand.png,cooperation,3.75,stand,right,easy,,546.2873140409993,552.7466186249985,correct,1.4139534160003677,stand,right,4,559.7318326249988,,,,547.2984991659996,
stim_set/hard-vcom=1-136.png,stand.png,cooperation,2.75,fall,left,hard,,559.7323789999991,566.3049836659993,correct,1.5325136250012292,fall,left,4,571.4823294580001,,,,560.7429345,
stim_set/easy-538.png,fall.png,cooperation,2.5,stand,right,easy,,571.4830030829999,577.6651328749995,correct,1.1501730830004817,stand,right,5,582.6409430409985,,,,572.4933954579992,
stim_set/hard-vcom=3-7.png,stand.png,cooperation,2.75,fall,left,hard,,582.6414897499999,589.8216104160001,correct,2.139879624999594,fall,left,3,594.867241291,,,,583.6519707079988,
stim_set/easy-vcom=1-73.png,fall.png,cooperation,2.5,fall,left,easy,,594.8678042499996,602.6465779999999,incorrect,2.7455971660001524,stand,right,3,607.3846419999991,,,,595.8779678749997,
stim_set/hard-vcom=3-82.png,stand.png,cooperation,2.5,fall,left,hard,,607.3851825000002,615.7049082499998,incorrect,3.2789967080007045,stand,right,1,620.544397874999,,,,608.3955129999995,
stim_set/hard-14.png,stand.png,cooperation,2.5,stand,right,hard,,620.5449508749989,630.4231544159993,incorrect,4.851017541999681,fall,left,3,635.2160587910003,,,,621.5551016249992,
stim_set/hard-369.png,fall.png,cooperation,2.5,stand,right,hard,,635.2166691659986,641.3384384579986,correct,1.0882336249997024,stand,right,4,646.8479826659986,,,,636.2269011249991,
stim_set/easy-vcom=4-69.png,fall.png,cooperation,4.0,fall,left,easy,,646.8485322079996,654.8549517499996,incorrect,2.963791666999896,stand,right,3,661.157196958,,,,647.8586292079999,
stim_set/hard-vcom=2-20.png,fall.png,cooperation,2.0,fall,left,hard,,661.1577574160001,667.2633394579989,correct,1.062266124999951,fall,left,4,671.5878214579989,,,,662.1678518329991,
stim_set/hard-vcom=3-142.png,stand.png,cooperation,4.0,fall,left,hard,,671.588360415999,678.2483657909997,correct,1.6228287920002913,fall,left,4,684.5644114579991,,,,672.5983365409993,
stim_set/hard-7.png,fall.png,cooperation,2.75,stand,right,hard,,684.5651362909994,691.881732374999,incorrect,2.2784128749990487,fall,left,3,696.9387185830001,,,,685.5754159159987,
stim_set/hard-132.png,stand.png,cooperation,3.0,stand,right,hard,,696.9393773329994,704.8981762080002,correct,2.9229550839991134,stand,right,4,710.8211987909999,,,,697.9506246659985,
stim_set/hard-vcom=4-147.png,fall.png,cooperation,3.25,fall,left,hard,,710.8217583749993,716.8821455409998,correct,1.0223570409998501,fall,left,4,722.4062410829993,,,,711.8318367079992,
stim_set/hard-vcom=1-30.png,stand.png,cooperation,2.5,fall,left,hard,,722.4067938749995,729.855077708,correct,2.4106792500006122,fall,left,4,735.1217095409993,,,,723.4174118749997,
stim_set/easy-vcom=1-87.png,fall.png,cooperation,2.5,fall,left,easy,,735.1223762909995,741.4718168749987,incorrect,1.3077953339998203,stand,right,3,746.2971020829991,,,,736.1324642079999,
stim_set/easy-vcom=3-74.png,fall.png,cooperation,2.25,fall,left,easy,,746.2976098749987,752.6301085409996,correct,1.290104916999553,fall,left,4,757.1509447499993,,,,747.3075804159998,
stim_set/easy-vcom=2-20.png,stand.png,cooperation,4.0,fall,left,easy,,757.1515722079985,766.780098833,incorrect,4.588257749999684,stand,right,2,774.3334799579989,,,,758.1620663329995,
stim_set/hard-570.png,fall.png,cooperation,2.0,stand,right,hard,,774.334016666,782.4966654999989,incorrect,3.120048917000531,fall,left,4,788.093991415999,,,,775.3444455829995,
stim_set/hard-78.png,fall.png,cooperation,2.25,stand,right,hard,,788.094552999999,798.1468698749995,incorrect,,,,,802.5951115409989,,,,789.1045434579992,
stim_set/hard-40.png,stand.png,cooperation,3.0,stand,right,hard,,802.5956956659993,808.7067996249989,incorrect,1.0733518329998333,fall,left,4,814.3324340409999,,,,803.6060722080001,
stim_set/hard-vcom=2-16.png,stand.png,cooperation,2.25,fall,left,hard,,814.3329612500002,821.9384309159996,correct,2.562280666999868,fall,left,3,826.4471447079995,,,,815.3433609579988,
stim_set/hard-599.png,fall.png,cooperation,2.0,stand,right,hard,,826.4477594579985,832.923377707999,incorrect,1.448370749998503,fall,left,4,837.2281916249995,,,,827.4581606659995,
stim_set/hard-vcom=2-137.png,fall.png,cooperation,2.25,fall,left,hard,,837.2289400409991,844.2802276659986,correct,2.015285584000594,fall,left,4,848.9110793330001,,,,838.2391378749999,
stim_set/hard-600.png,fall.png,cooperation,3.0,stand,right,hard,,848.9116347079998,855.7798707499987,correct,1.8351770829995075,stand,right,2,861.5093013329988,,,,849.9216712910002,
stim_set/hard-182.png,stand.png,cooperation,2.75,stand,right,hard,,861.5098511659999,867.7549291249998,incorrect,1.2132657920010388,fall,left,3,872.826784040999,,,,862.5201074999986,
stim_set/easy-vcom=2-94.png,fall.png,cooperation,4.0,fall,left,easy,,872.827302791,880.5801510410001,incorrect,2.7136478749998787,stand,right,3,887.4052177079993,,,,873.8373250829991,
stim_set/easy-344.png,stand.png,cooperation,2.75,stand,right,easy,,887.4059757079995,893.780441416,correct,1.336145082999792,stand,right,4,898.9230902499985,,,,888.4166372909986,
stim_set/easy-vcom=3-74.png,fall.png,cooperation,2.25,fall,left,easy,,898.9236087909994,905.731560958,correct,1.7717686659998435,fall,left,4,910.3354005410001,,,,899.9337955829997,
stim_set/hard-vcom=2-110.png,stand.png,cooperation,2.5,fall,left,hard,,910.3359788749985,918.1052775829994,correct,2.732208333000017,fall,left,4,922.9376037080001,,,,911.3465594579993,
stim_set/hard-21.png,fall.png,cooperation,2.5,stand,right,hard,,922.938303416,929.6986373330001,correct,1.728265375000774,stand,right,3,935.6502564999992,,,,923.9480792909999,
stim_set/easy-77.png,stand.png,cooperation,2.5,stand,right,easy,,935.6507313329985,941.7051761659986,correct,1.0147624159999395,stand,right,4,946.4967940409988,,,,936.6614190829987,
stim_set/hard-214.png,fall.png,cooperation,3.25,stand,right,hard,,946.4975613329989,954.398515416,incorrect,2.8626038340007653,fall,left,4,960.6228032079998,,,,947.5076279160003,
stim_set/hard-49.png,stand.png,cooperation,3.0,stand,right,hard,,960.6233810409976,966.8156135829995,incorrect,1.151367875001597,fall,left,3,972.1250509999991,,,,961.634306625001,
stim_set/hard-345.png,fall.png,cooperation,2.25,stand,right,hard,,972.1256112499977,978.2303580000007,correct,1.0645307499980845,stand,right,5,982.8633416659977,,,,973.1361590829983,
stim_set/hard-vcom=1-95.png,fall.png,cooperation,2.5,fall,left,hard,,982.8638424159981,989.2636442080002,incorrect,1.3601799169991864,stand,right,3,994.232930457998,,,,983.8740949999992,
stim_set/hard-564.png,stand.png,cooperation,2.25,stand,right,hard,,994.2334877499998,1000.6052028329977,incorrect,1.3298452910021297,fall,left,4,1005.6231279579988,,,,995.2439944580001,
stim_set/easy-vcom=2-147.png,stand.png,cooperation,3.0,fall,left,easy,,1005.6236668329984,1012.030380207998,correct,1.364893709000171,fall,left,5,1017.7093998749988,1017.7098019160003,,,1006.6341847910007,
stim_set/hard-vcom=4-80.png,fall.png,cooperation,4.0,fall,left,hard,0.00016466600027342793,0.0007371660012722714,7.419206041000508,correct,2.373389374999533,fall,left,4.0,15.052353666000274,,,,1.0134014160012157,
stim_set/hard-vcom=1-136.png,fall.png,competition,3.25,fall,left,hard,,15.053336916000262,22.887463208000554,correct,2.800145667000834,fall,left,4.0,28.58024495800055,,,,16.06386837500031,
stim_set/hard-369.png,stand.png,competition,3.0,stand,right,hard,,28.580810250001374,35.15245429100105,correct,1.5396260409997922,stand,right,5.0,40.977792749999935,,,,29.591108958000408,
stim_set/hard-vcom=2-147.png,fall.png,competition,2.0,fall,left,hard,,40.97833341600017,49.294268833000395,correct,3.2840502919989376,fall,left,4.0,53.61801275000107,,,,41.98813787500149,
stim_set/hard-vcom=2-20.png,stand.png,competition,3.75,fall,left,hard,,53.618561708000925,59.879077999999936,correct,1.2240305410014116,fall,left,4.0,66.4643114999999,,,,54.62892754099994,
stim_set/easy-vcom=1-73.png,fall.png,competition,4.0,fall,left,easy,,66.46496541600027,74.48601745800079,incorrect,2.987390749998667,stand,right,3.0,81.05811675000041,,,,67.47566116600137,
stim_set/hard-132.png,stand.png,competition,2.75,stand,right,hard,,81.05881899999986,88.23594370800129,incorrect,2.1378557919997547,fall,left,3.0,94.8579019580011,,,,82.07013675000053,
stim_set/easy-vcom=2-20.png,fall.png,competition,3.0,fall,left,easy,,94.85850062500141,103.88621675000105,incorrect,3.989821083001516,stand,right,3.0,109.41821549999986,,,,95.868597916,
stim_set/hard-280.png,fall.png,competition,2.5,stand,right,hard,,109.41877916600059,116.54443379100121,incorrect,2.0835781669993594,fall,left,4.0,121.38982399999986,,,,110.42910654099977,
stim_set/hard-600.png,stand.png,competition,2.25,stand,right,hard,,121.39053695800068,130.52122016600148,correct,4.103219208000154,stand,right,3.0,135.21980908300065,,,,122.40090200000122,
stim_set/hard-334.png,stand.png,competition,3.25,stand,right,hard,,135.2203748330012,142.27942862500097,incorrect,2.0271574160015007,fall,left,3.0,148.484689541001,,,,136.23070483300035,
stim_set/easy-vcom=1-12.png,stand.png,competition,2.75,fall,left,easy,,148.4852439160004,155.47966675000134,correct,1.9566289169997615,fall,left,4.0,160.96862866599986,,,,149.49605433299985,
stim_set/easy-vcom=2-147.png,fall.png,competition,2.5,fall,left,easy,,160.96917500000018,168.02962325000044,correct,2.0251147910003056,fall,left,5.0,173.07900070800133,,,,161.97948983300012,
stim_set/easy-590.png,stand.png,competition,4.0,stand,right,easy,,173.07973237500119,180.1112393330004,correct,1.9888289589998749,stand,right,5.0,186.4421672910012,,,,174.0897728330001,
stim_set/hard-91.png,stand.png,competition,2.0,stand,right,hard,,186.4427392080015,193.0444817080006,correct,1.5620422500014683,stand,right,3.0,197.9382791660009,,,,187.45312058300078,
stim_set/hard-vcom=1-95.png,fall.png,competition,2.25,fall,left,hard,,197.93884787500062,205.60455629100036,incorrect,2.6326679999983758,stand,right,3.0,210.84451891600108,,,,198.948973083001,
stim_set/hard-402.png,stand.png,competition,2.25,stand,right,hard,,210.8450637500009,219.10496383300048,correct,3.2228834580000694,stand,right,2.0,224.24410925000117,,,,211.85523591600034,
stim_set/hard-49.png,fall.png,competition,3.75,stand,right,hard,,224.2447953330011,231.91310866599997,incorrect,2.6277472500005388,fall,left,4.0,238.52871016600147,,,,225.25497516600083,
stim_set/easy-vcom=4-69.png,stand.png,competition,3.0,fall,left,easy,,238.5294545830002,246.92794875000072,correct,3.356593667000197,fall,left,4.0,253.14714625000127,,,,239.5397154580005,
stim_set/easy-vcom=3-38.png,fall.png,competition,2.5,fall,left,easy,,253.14773141600014,260.52782124999976,correct,2.338878749998912,fall,left,4.0,266.23156229100096,,,,254.15762800000084,
stim_set/hard-vcom=3-7.png,stand.png,competition,2.25,fall,left,hard,,266.23210225,273.246520875,correct,1.98092804100088,fall,left,5.0,278.1882458330001,,,,267.2423389579999,
stim_set/easy-vcom=3-142.png,fall.png,competition,2.5,fall,left,easy,,278.18885033300097,286.94469220800056,correct,3.71519941599945,fall,left,4.0,292.22294683300066,,,,279.1991377909999,
stim_set/hard-345.png,fall.png,competition,3.25,stand,right,hard,,292.2236556250009,299.5549020409999,correct,2.2979407500006346,stand,right,3.0,305.9164534160009,,,,293.2337915000008,
stim_set/easy-164.png,stand.png,competition,2.5,stand,right,easy,,305.91701275000014,313.04435154100065,correct,2.0841552909987517,stand,right,4.0,317.91954270800125,,,,306.92775166600035,
stim_set/hard-2.png,fall.png,competition,2.75,stand,right,hard,,317.92025383300097,325.7460277080008,correct,2.7903247089998326,stand,right,4.0,330.9050500000012,,,,318.930412791,
stim_set/hard-vcom=4-75.png,stand.png,competition,3.25,fall,left,hard,,330.90573541600133,340.4946870000004,correct,4.547082416998818,fall,left,3.0,348.22207441600034,,,,331.9161419580014,
stim_set/hard-40.png,stand.png,competition,2.25,stand,right,hard,,348.2226391660006,356.7876609579998,incorrect,3.5256667920002656,fall,left,4.0,362.1890437910006,,,,349.23384900000013,
stim_set/hard-vcom=2-100.png,stand.png,competition,2.75,fall,left,hard,,362.1896741660002,370.4794681660005,correct,3.2484892920001585,fall,left,4.0,376.5804319160016,,,,363.2017448750012,
stim_set/hard-vcom=3-145.png,fall.png,competition,4.0,fall,left,hard,,376.58117362499985,385.16947050000084,incorrect,3.55110679200152,stand,right,3.0,391.4919598329998,,,,377.5929807500015,
stim_set/hard-82.png,stand.png,competition,2.25,stand,right,hard,,391.49257041600134,397.96985925000087,incorrect,1.4324122910002188,fall,left,4.0,402.5418159580004,,,,392.50409929099993,
stim_set/easy-vcom=2-3.png,fall.png,competition,2.5,fall,left,easy,,402.542519916,411.5791657910013,correct,3.996627709000677,fall,left,3.0,417.070579833,,,,403.55401816599993,
stim_set/hard-566.png,fall.png,competition,3.75,stand,right,hard,,417.07126125000093,425.6526675000005,incorrect,3.5336584169999696,fall,left,4.0,433.2752933330012,,,,418.081555625,
stim_set/hard-214.png,fall.png,competition,2.0,stand,right,hard,,433.275902708001,441.9859267500015,incorrect,3.663119999999253,fall,left,2.0,447.34851995800085,,,,434.28763545800035,
stim_set/easy-vcom=4-19.png,stand.png,competition,2.0,fall,left,easy,,447.3491402500004,455.6713347910009,correct,3.280980249999629,fall,left,4.0,459.95684558300127,,,,448.3606389160013,
stim_set/easy-280.png,fall.png,competition,3.75,stand,right,easy,,459.9582784579997,466.6691252500004,correct,1.6602779999993797,stand,right,4.0,473.8116831660009,,,,460.97123908300085,
stim_set/hard-321.png,stand.png,competition,3.0,stand,right,hard,,473.8122994580008,483.8694580000009,incorrect,,,,,490.9038714580002,,,,474.8237320830012,
stim_set/hard-182.png,fall.png,competition,2.25,stand,right,hard,,490.9045690410003,498.21219183300127,correct,2.2762837919999583,stand,right,3.0,502.87075550000014,,,,491.91512700000015,
stim_set/hard-vcom=3-34.png,fall.png,competition,2.5,fall,left,hard,,502.8714593330005,509.7522492080007,correct,1.8320406670009104,fall,left,4.0,515.0956250830004,,,,503.88239212500054,
stim_set/easy-538.png,stand.png,competition,2.5,stand,right,easy,,515.0962724159999,521.5293699160011,correct,1.3987289169999713,stand,right,4.0,527.1107220000013,,,,516.1071492910014,
stim_set/hard-244.png,fall.png,competition,4.0,stand,right,hard,,527.1112708750006,535.0691691250013,correct,2.9134554169995686,stand,right,3.0,541.4586512080004,541.4589775830009,,,528.1213497910012,
stim_set/easy-13.png,stand.png,competition,2.25,stand,right,easy,552.9618531249998,552.9626160410006,559.1289233330008,correct,1.123653833001299,stand,right,4.0,563.6615705000004,,,,553.9768832910013,
stim_set/hard-vcom=4-23.png,fall.png,competition,3.25,fall,left,hard,,563.6621908329997,569.6856951660011,correct,0.9840133329998936,fall,left,4.0,575.7481495000011,,,,564.6723464160003,
stim_set/hard-vcom=4-80.png,fall.png,competition,2.5,fall,left,hard,,575.7487113330008,583.6524211249998,correct,2.8591886659996817,fall,left,3.0,589.4964550410003,,,,576.759111708001,
stim_set/easy-77.png,stand.png,competition,2.0,stand,right,easy,,589.497018166001,595.818958666001,correct,1.2823960830010035,stand,right,4.0,601.1631578329997,,,,590.50717325,
stim_set/hard-177.png,fall.png,competition,3.75,stand,right,hard,,601.1638121659997,609.2106781660003,correct,3.0138167910008637,stand,right,2.0,615.8161890830015,,,,602.1736661659997,
stim_set/easy-vcom=2-94.png,stand.png,competition,4.0,fall,left,easy,,615.8167202910007,622.294169625,correct,1.4364982080005575,fall,left,4.0,629.1776214580004,,,,616.8269344159999,
stim_set/hard-vcom=1-30.png,fall.png,competition,2.75,fall,left,hard,,629.1782092499998,636.5126962080012,correct,2.301230540999313,fall,left,5.0,642.0329714580002,,,,630.1885963330005,
stim_set/easy-vcom=3-15.png,stand.png,competition,3.0,fall,left,easy,,642.033614,649.360659041,correct,2.2868226250011503,fall,left,4.0,655.6426223330001,,,,643.0440469160002,
stim_set/hard-vcom=1-3.png,fall.png,competition,2.5,fall,left,hard,,655.6431359580001,662.6790607500006,correct,2.0004719160006057,fall,left,4.0,667.5494785830015,,,,656.6530407910013,
stim_set/easy-411.png,stand.png,competition,2.25,stand,right,easy,,667.5501210830007,674.6024164160008,correct,2.0080880839996103,stand,right,4.0,679.2360400409998,,,,668.560756375,
stim_set/easy-344.png,fall.png,competition,3.25,stand,right,easy,,679.236600958,685.6606847500008,correct,1.3858443330009322,stand,right,4.0,691.1881104580008,,,,680.2464149160005,
stim_set/hard-vcom=3-142.png,stand.png,competition,2.75,fall,left,hard,,691.1887010000011,699.7439845000008,incorrect,3.5117473749996857,stand,right,3.0,704.8241589160008,,,,692.198810791,
stim_set/hard-vcom=3-110.png,stand.png,competition,2.5,fall,left,hard,,704.8248027500013,712.8939404580016,correct,3.0351764999995794,fall,left,4.0,720.2146302910005,,,,705.8353962910005,
stim_set/hard-441.png,fall.png,competition,4.0,stand,right,hard,,720.2151740000007,727.9356711660002,incorrect,2.6823146670012648,fall,left,4.0,734.3304530410005,,,,721.2257931660007,
stim_set/hard-570.png,fall.png,competition,2.0,stand,right,hard,,734.3311929160009,741.1604281660002,incorrect,1.7854348339988064,fall,left,3.0,745.5384205830014,,,,735.3413698330005,
stim_set/hard-492.png,stand.png,competition,2.25,stand,right,hard,,745.5389636250003,752.2190213330014,incorrect,1.6386468330001662,fall,left,4.0,756.812211083001,,,,746.5494570000011,
stim_set/hard-vcom=3-82.png,fall.png,competition,2.25,fall,left,hard,,756.8127834160006,765.9939536250004,correct,4.1392021250012485,fall,left,2.0,771.6622099160013,,,,757.822564166001,
stim_set/hard-vcom=1-50.png,stand.png,competition,3.75,fall,left,hard,,771.6628490000003,777.9440130830008,correct,1.2368925829996442,fall,left,4.0,784.8489386250003,,,,772.6738289160002,
stim_set/hard-vcom=2-137.png,stand.png,competition,3.0,fall,left,hard,,784.8495275410005,793.7022577910011,incorrect,3.8146698340005964,stand,right,3.0,799.8665294580005,,,,785.8597991250008,
stim_set/hard-vcom=4-147.png,fall.png,competition,2.5,fall,left,hard,,799.8671470000007,806.3190847080003,correct,1.4073883750006644,fall,left,4.0,811.5896686249997,,,,800.8775527080015,
stim_set/hard-599.png,stand.png,competition,2.25,stand,right,hard,,811.5902090410001,817.9857023330005,incorrect,1.361515041999155,fall,left,4.0,822.5080226250011,,,,812.6005885410012,
stim_set/hard-vcom=4-139.png,fall.png,competition,2.5,fall,left,hard,,822.5085808330005,828.770321,correct,1.228240000000369,fall,left,4.0,833.6465438330016,,,,823.5183068330008,
stim_set/hard-vcom=1-130.png,fall.png,competition,3.25,fall,left,hard,,833.6472835830009,840.7939127500013,incorrect,2.1076298330008285,stand,right,4.0,846.3397374580001,,,,834.6576000410005,
stim_set/easy-vcom=1-87.png,stand.png,competition,2.5,fall,left,easy,,846.340314041001,854.3437847910009,incorrect,2.9608487500008778,stand,right,2.0,859.7981154580011,,,,847.3506337910002,
stim_set/hard-549.png,stand.png,competition,2.75,stand,right,hard,,859.7986985830013,866.8622979160008,incorrect,2.0272459160005383,fall,left,5.0,873.5454852080002,,,,860.8088599580005,
stim_set/hard-391.png,stand.png,competition,3.25,stand,right,hard,,873.546067000001,883.1288326660015,correct,4.547611166999559,stand,right,3.0,888.708249708001,,,,874.5568843330002,
stim_set/hard-vcom=2-110.png,fall.png,competition,2.25,fall,left,hard,,888.7087877499997,895.4205033329998,correct,1.678018582999357,fall,left,4.0,900.2679188330002,,,,889.7189721250015,
stim_set/hard-vcom=4-142.png,stand.png,competition,2.75,fall,left,hard,,900.2684605000012,907.2940022500006,incorrect,1.9856238749998736,stand,right,3.0,912.3047915000006,,,,901.2786718750012,
stim_set/hard-564.png,fall.png,competition,4.0,stand,right,hard,,912.3054410830008,919.4856896660003,incorrect,2.138439542000924,fall,left,3.0,925.7547122080014,,,,913.3152132910001,
stim_set/hard-vcom=2-16.png,stand.png,competition,2.25,fall,left,hard,,925.7553588750017,934.385693958,incorrect,3.5852269589995562,stand,right,3.0,938.9552531660013,,,,926.7661145000003,
stim_set/easy-vcom=4-126.png,stand.png,competition,3.0,fall,left,easy,,938.9558055409998,945.210695791,incorrect,1.210248375000447,stand,right,4.0,950.4989287500013,,,,939.9660594160015,
stim_set/hard-vcom=4-92.png,fall.png,competition,3.75,fall,left,hard,,950.4994561250003,958.7024144580008,correct,3.1584573330001153,fall,left,4.0,964.8320927500008,,,,951.5095427080014,
stim_set/hard-7.png,stand.png,competition,2.0,stand,right,hard,,964.8326467500011,971.3024561660004,incorrect,1.4252303329994902,fall,left,4.0,975.8989530830004,,,,965.8429365000012,
stim_set/hard-382.png,stand.png,competition,2.0,stand,right,hard,,975.8995204580007,983.0024277500016,correct,2.068899915999282,stand,right,3.0,987.4099817080004,,,,976.9101380829998,
stim_set/hard-316.png,fall.png,competition,3.75,stand,right,hard,,987.4105689580009,994.2607242080013,incorrect,1.8109252089998336,fall,left,3.0,1000.464233666,,,,988.4206758750006,
stim_set/hard-367.png,stand.png,competition,3.0,stand,right,hard,,1000.4647905830006,1008.7442169160004,incorrect,3.239509833001648,fall,left,3.0,1014.5214500000003,,,,1001.4751916250008,
stim_set/hard-21.png,fall.png,competition,2.25,stand,right,hard,,1014.5220840830008,1023.2942359580012,incorrect,3.731521749999956,fall,left,4.0,1029.2539346660014,,,,1015.5327666660014,
stim_set/hard-78.png,stand.png,competition,2.5,stand,right,hard,,1029.2544922910001,1037.560622166,correct,3.2642300000006803,stand,right,3.0,1043.336571916001,,,,1030.2647580410012,
stim_set/easy-vcom=1-145.png,fall.png,competition,2.5,fall,left,easy,,1043.3371724160006,1050.477435791001,correct,2.0985606670001293,fall,left,3.0,1055.6064518750009,,,,1044.3473884579996,
stim_set/hard-14.png,stand.png,competition,4.0,stand,right,hard,,1055.6070694580012,1062.0373868750012,incorrect,1.4009956249992683,fall,left,4.0,1068.3542508330008,1068.3545777500003,,,1056.6177842080015,
stim_set/hard-410.png,stand.png,cooperation,3.75,stand,right,hard,2.8340000426396728e-06,0.0022128340006020153,7.179858959001649,incorrect,2.1623049579993676,fall,left,2,13.480932834001578,13.481493375000355,,,1.0144121250013995,
stim_set/hard-188.png,stand.png,competition,4.0,stand,right,hard,2.7919995773117994e-06,0.002226374999736436,10.039151749999293,incorrect,,,,,19.062882583999453,19.0632444999992,,,1.0155490839988488,
