batch_type,motivation,towers,trial_start,stim_on,choice,acc,rt,key,trial_end,score
unstable,stand,stim_set/hard-vcom=4-22.png,3.938718916999278,6.812994916999742,stand,correct,2.877612499998577,left,9.83219333299894,234.0
unstable,stand,stim_set/hard-441.png,9.874903082998571,11.890175167000052,stand,incorrect,2.0257145420000597,left,14.911474541999269,
unstable,stand,stim_set/hard-vcom=2-95.png,14.950246832999255,16.971174499998597,stand,correct,2.0273360419996607,left,19.987843957998848,
unstable,stand,stim_set/easy-586.png,20.03351074999955,21.02131104199907,fall,correct,0.9937757500010775,right,24.037770957998873,
unstable,stand,stim_set/hard-vcom=4-139.png,24.082041957999536,25.479721042000165,stand,correct,1.4041737919997104,left,28.498993332999817,
unstable,stand,stim_set/hard-vcom=4-147.png,28.547318291999545,29.696225624998988,stand,correct,1.1549402910004574,left,32.712523707999935,
unstable,stand,stim_set/easy-304.png,32.75870824999947,33.84800762499981,fall,incorrect,1.1003722500008735,right,36.869113332999405,
unstable,stand,stim_set/hard-286.png,36.917407957998876,38.60482641699855,stand,correct,1.6924627499993221,left,41.621045707999656,
unstable,stand,stim_set/hard-280.png,41.66891216699878,42.75466737500028,fall,incorrect,1.0919769579995773,right,45.771289958000125,
unstable,stand,stim_set/hard-600.png,45.80865116699897,48.2063057919986,stand,correct,2.4082556249995832,left,51.227456874999916,
unstable,stand,stim_set/hard-vcom=4-27.png,51.275986667000325,52.440436832999694,fall,correct,1.174866875000589,right,55.46145154199985,
unstable,stand,stim_set/easy-28.png,55.50748249999924,56.462978499999736,fall,correct,0.9617883330010955,right,59.47953104199951,
unstable,stand,stim_set/hard-78.png,59.52566554199984,60.52974858299967,stand,correct,1.0097148749991902,left,63.546411457999056,
unstable,stand,stim_set/easy-411.png,63.59420570799921,64.5313089579995,fall,correct,0.947848249999879,right,67.5522888329997,
unstable,stand,stim_set/easy-164.png,67.60036112499984,68.64028320800026,fall,correct,1.0498716669990245,right,71.66077108299942,
unstable,stand,stim_set/hard-440.png,71.70493995799916,72.64824158299962,fall,correct,0.9541442919999099,right,75.66963762500018,
unstable,stand,stim_set/hard-555.png,75.71301912499985,76.73817354199855,stand,correct,1.0316408750004484,left,79.75498479199996,
unstable,stand,stim_set/hard-14.png,79.7926525419989,81.43174729199927,stand,incorrect,1.6492918750009267,left,84.45228766699984,
unstable,stand,stim_set/hard-vcom=3-142.png,84.49989920799999,85.87974012499944,stand,correct,1.38665008299904,left,88.89916354199886,
unstable,stand,stim_set/easy-vcom=1-12.png,88.94615812499978,91.57120170799863,stand,correct,2.6315432080009487,left,94.58826879200024,
unstable,stand,stim_set/hard-vcom=1-92.png,94.63655924999875,95.99650895800005,fall,correct,1.366064624999126,right,99.01280662499994,
unstable,stand,stim_set/easy-318.png,99.05889579199902,100.86316295799952,fall,correct,1.81062245800058,right,103.87957766699947,
unstable,stand,stim_set/easy-vcom=2-73.png,103.92200224999942,105.15490841700012,stand,incorrect,1.23883295899941,left,108.1707639999986,
unstable,stand,stim_set/hard-vcom=4-88.png,108.21337520799898,109.46319249999942,stand,correct,1.2558868750002148,left,112.48011137499998,
unstable,stand,stim_set/easy-542.png,112.5272189999996,113.59018649999962,fall,correct,1.0731319999995321,right,116.61087916699944,
stable,fall,stim_set/easy-239.png,120.33980533300019,122.48799504199997,fall,correct,2.154613958000482,right,125.50740945799953,
stable,fall,stim_set/hard-vcom=4-23.png,125.55175595800029,126.97981512499973,stand,correct,1.4341628339989256,left,129.99619862500003,
stable,fall,stim_set/hard-vcom=1-95.png,130.03951383299864,131.8070418749994,stand,correct,1.7773872090001532,left,134.82842820800033,
stable,fall,stim_set/easy-11.png,134.87200758299878,135.8653858329999,fall,correct,1.0035873750002793,right,138.88640195799962,
stable,fall,stim_set/easy-233.png,138.93426654199902,139.7714872079996,fall,correct,0.8432179579995136,right,142.78785604199948,
stable,fall,stim_set/hard-599.png,142.8255242919986,145.20491866699922,stand,correct,2.3849359590003587,left,148.2206822499993,
stable,fall,stim_set/hard-vcom=2-100.png,148.2649350419997,149.5568635419986,stand,correct,1.302717999999004,left,152.57758133300013,
stable,fall,stim_set/easy-vcom=3-106.png,152.6228965829996,153.89047237500017,stand,correct,1.2776955839999573,left,156.91177408299882,
stable,fall,stim_set/easy-vcom=1-87.png,156.9583927499989,160.39863866700034,stand,correct,3.4507875420003984,left,163.41926491699996,
stable,fall,stim_set/hard-369.png,163.45703854199928,165.17331037499935,fall,correct,1.7268951660007588,right,168.19437687499885,
stable,fall,stim_set/easy-228.png,168.23232341699986,169.38806837499942,fall,correct,1.1622558330000174,right,172.4048252499997,
stable,fall,stim_set/hard-410.png,172.45189049999863,175.29017016699981,fall,correct,2.8489515419987583,right,178.31150487499872,
stable,fall,stim_set/easy-122.png,178.35539962499934,181.62973437499932,fall,incorrect,3.2806314999997994,right,184.6463394579987,
stable,fall,stim_set/easy-195.png,184.6898868749995,185.6717179999996,fall,correct,0.98826091599949,right,188.68847149999965,
stable,fall,stim_set/hard-576.png,188.7263328329991,191.0404871669998,fall,incorrect,2.3248240829998394,right,194.06123412499983,
stable,fall,stim_set/hard-vcom=3-82.png,194.10791004199928,195.45721283300009,stand,correct,1.3597646660000464,left,198.47813504199985,
stable,fall,stim_set/easy-vcom=3-121.png,198.52463241700025,201.0800448329992,fall,correct,2.5615315830000327,right,204.09662054199907,
stable,fall,stim_set/hard-492.png,204.14190591700026,206.52173570800005,stand,correct,2.386091292000856,left,209.53843354200035,
stable,fall,stim_set/hard-vcom=1-130.png,209.5810133750001,211.3551886669993,stand,correct,1.7801300830014952,left,214.3713939169993,
stable,fall,stim_set/easy-344.png,214.41384933299923,216.27374058299938,fall,correct,1.8702842500006227,right,219.29417658300008,
stable,fall,stim_set/hard-vcom=3-145.png,219.33179758299957,221.45498779199988,stand,incorrect,2.1295554999996966,left,224.4719944999997,
stable,fall,stim_set/hard-214.png,224.51984037500006,225.54649866699947,stand,correct,1.032768582999779,left,228.56285920799928,
stable,fall,stim_set/easy-8.png,228.6048515829989,229.60520483300024,fall,correct,1.0065898749999178,right,232.62220999999954,
stable,fall,stim_set/hard-vcom=4-132.png,232.6640269999989,233.62197179199939,fall,incorrect,0.9635275829987222,right,236.63766229199973,
stable,fall,stim_set/hard-vcom=3-143.png,236.68081916699884,239.5799641249996,fall,incorrect,2.905722292000064,right,242.59696858299867,
unstable,NA,stim_set/hard-280.png,247.08402491699962,249.56347487499988,stand,correct,2.4835149579994322,left,252.57925704199988,
unstable,NA,stim_set/easy-164.png,252.62573399999928,253.59887454199998,fall,correct,0.98389545900136,right,256.61952845799897,
unstable,NA,stim_set/hard-vcom=3-142.png,256.6662312499993,259.03866133299925,stand,correct,2.3783957089999603,left,262.0554988749991,
unstable,NA,stim_set/easy-318.png,262.1002313329991,263.1156657920001,fall,correct,1.0257535000000644,right,266.1368606249998,
unstable,NA,stim_set/hard-14.png,266.17293874999996,268.29694104199916,stand,incorrect,2.1298566249988653,left,271.3133825419991,
unstable,NA,stim_set/easy-28.png,271.357466292,272.43018800000027,fall,correct,1.078690499998629,right,275.4465354169988,
unstable,NA,stim_set/hard-vcom=4-147.png,275.49324499999966,277.9402168329998,stand,correct,2.458000874999925,left,280.96158466699853,
unstable,NA,stim_set/hard-vcom=4-88.png,281.003289708,282.41569954199986,stand,correct,1.4226782499990804,left,285.4367254579993,
unstable,NA,stim_set/hard-440.png,285.47954670800027,286.52992962499957,fall,correct,1.0569272080010705,right,289.5469186669998,
unstable,NA,stim_set/easy-vcom=1-12.png,289.5925985829999,291.24699579200023,stand,correct,1.6605044590014586,left,294.2634765419989,
unstable,NA,stim_set/hard-vcom=4-139.png,294.30561116699937,295.6552514169998,stand,correct,1.3558152500008873,left,298.6716382079994,
unstable,NA,stim_set/hard-78.png,298.7161516670003,300.7470019579996,stand,correct,2.036894499999107,left,303.76306354199914,
unstable,NA,stim_set/hard-vcom=4-27.png,303.8099419579994,308.6636939580003,fall,correct,4.859784583000874,right,311.6801954169987,
unstable,NA,stim_set/hard-vcom=2-95.png,311.7175944999999,314.0969895420003,stand,correct,2.3852833340006327,left,317.11338895799963,
unstable,NA,stim_set/hard-555.png,317.1558038329986,318.4237473329995,stand,correct,1.278719625001031,left,321.44517870799973,
unstable,NA,stim_set/hard-vcom=4-22.png,321.49395083299896,322.6061487499992,stand,correct,1.1232424579993676,left,325.62828716699914,
unstable,NA,stim_set/hard-286.png,325.67521837499953,329.15545383300014,stand,correct,3.48659383300037,left,332.17202370799896,
unstable,NA,stim_set/easy-vcom=2-73.png,332.2133634169986,334.82374683299895,fall,correct,2.620761707999918,right,337.84482087499964,
unstable,NA,stim_set/easy-586.png,337.8889277500002,339.2220115829987,fall,correct,1.339712499999223,right,342.2388524580001,
unstable,NA,stim_set/hard-441.png,342.28092062499854,343.7658486250002,stand,incorrect,1.4954921249991457,left,346.78687770800025,
unstable,NA,stim_set/hard-vcom=1-92.png,346.83338662499955,349.78246495799976,fall,correct,2.959490082999764,right,352.80286008300027,
unstable,NA,stim_set/easy-542.png,352.84852766699987,354.0969487499988,fall,correct,1.254182958000456,right,357.1136707079986,
unstable,NA,stim_set/easy-411.png,357.1603256669987,359.2969613749992,fall,correct,2.1426828330004355,right,362.31319558299947,
unstable,NA,stim_set/hard-600.png,362.34938008300014,363.5973444169995,stand,correct,1.2533254999998462,left,366.6138127079994,
unstable,NA,stim_set/easy-304.png,366.6582472499995,369.33023579200017,fall,incorrect,2.6785074590006843,right,372.34713525000006,
unstable,NA,stim_set/hard-78.png,5.5711692919994675,8.034323124998991,stand,correct,2.4726769999997487,left,11.055401249999704,
unstable,NA,stim_set/easy-164.png,11.101877457998853,13.292593624999427,fall,correct,2.2007067920003465,right,16.31322441699922,
unstable,NA,stim_set/hard-555.png,16.3554695419989,17.61559849999867,stand,correct,1.2667014580001705,left,20.634952708000128,
unstable,NA,stim_set/easy-304.png,20.679207207998843,21.607165457999145,fall,incorrect,0.9338372089987388,right,24.6232291669985,
unstable,NA,stim_set/hard-14.png,24.659443916998498,26.467502124998646,stand,incorrect,1.8184816659995704,left,29.48823099999936,
unstable,NA,stim_set/easy-586.png,29.53302979199907,30.225918791998993,fall,correct,0.7033182499999384,right,33.246772749998854,
unstable,NA,stim_set/hard-vcom=4-22.png,33.294003166998664,34.23419645799913,stand,correct,0.9507790420011588,left,37.25494195799911,
unstable,NA,stim_set/easy-411.png,37.301446499999656,38.082169582999995,fall,correct,0.7868037919997732,right,41.09846570799891,
unstable,NA,stim_set/hard-280.png,41.14441204200011,42.2739314169994,stand,correct,1.1353884999989532,left,45.290188124999986,
unstable,NA,stim_set/hard-286.png,45.33715016699898,48.11535970799923,fall,incorrect,2.7847768339997856,right,51.13194266699975,
unstable,NA,stim_set/easy-vcom=2-73.png,51.17330958299863,52.12421345799885,fall,correct,0.9564674590001232,right,55.13988837499892,
unstable,NA,stim_set/easy-318.png,55.1845661669995,55.99058524999964,fall,correct,0.8121741670001938,right,59.006471124999734,
unstable,NA,stim_set/hard-440.png,59.04982729199946,59.85701616699953,fall,correct,0.8137887499997305,right,62.874281041998984,
unstable,NA,stim_set/hard-vcom=4-27.png,62.92108158299925,63.948971249999886,stand,incorrect,1.034520249999332,left,66.96547116699912,
unstable,NA,stim_set/hard-vcom=1-92.png,67.01205537499845,67.87390162500014,fall,correct,0.8683629999995901,right,70.89040145800027,
unstable,NA,stim_set/hard-600.png,70.92683291699905,72.9486541669994,stand,correct,2.0277090840008896,left,75.96528183299961,
unstable,NA,stim_set/hard-vcom=4-147.png,76.01211324999895,77.28232212500006,stand,correct,1.2768767079996906,left,80.29921554199973,
unstable,NA,stim_set/hard-vcom=3-142.png,80.34549133299879,81.90702812499876,stand,correct,1.5681485000004614,left,84.92364524999903,
unstable,NA,stim_set/easy-vcom=1-12.png,84.96983145800004,86.68233679199875,stand,correct,1.7189054999998916,left,89.69878866699946,
unstable,NA,stim_set/easy-28.png,89.74331258299935,90.89070233299935,fall,correct,1.153448875000322,right,93.90682670800015,
unstable,NA,stim_set/hard-441.png,93.94746045799911,96.03234037499897,stand,incorrect,2.091065249998792,left,99.04884941699856,
unstable,NA,stim_set/hard-vcom=2-95.png,99.08491808299914,101.71546374999889,stand,correct,2.6373333749997983,left,104.7326117499997,
unstable,NA,stim_set/hard-vcom=4-88.png,104.77394712499881,105.87411979199896,stand,correct,1.1062684999997145,left,108.89017904199864,
unstable,NA,stim_set/hard-vcom=4-139.png,108.93222587499986,110.99256104199958,stand,correct,2.0710729170004925,left,114.01365366699974,
unstable,NA,stim_set/easy-542.png,114.05951891699988,115.01787666699965,fall,correct,0.9688222919994587,right,118.03835391699977,
stable,NA,stim_set/hard-599.png,124.14769574999991,126.4158433749999,stand,correct,2.2729123329991126,left,129.43162570799905,
stable,NA,stim_set/hard-vcom=4-132.png,129.47214387500026,130.47408754199932,fall,incorrect,1.0080022920010379,right,133.49074024999936,
stable,NA,stim_set/easy-344.png,133.5323106249998,134.39067095799874,fall,correct,0.8643645829997695,right,137.4071021669988,
stable,NA,stim_set/hard-vcom=1-95.png,137.4491548749993,139.54266791699956,stand,correct,2.10428870800024,left,142.56366650000018,
stable,NA,stim_set/hard-410.png,142.60997733299882,144.48214612499942,stand,incorrect,1.8786520000012388,left,147.49896891699973,
stable,NA,stim_set/hard-369.png,147.535340041999,149.1323814999996,fall,correct,1.6032159999995201,right,152.14884237499973,
stable,NA,stim_set/hard-vcom=3-82.png,152.19341666699984,153.30929079199996,stand,correct,1.1263212089997978,left,156.33073074999993,
stable,NA,stim_set/easy-11.png,156.37286249999852,157.234330416999,fall,correct,0.8720262500009994,right,160.25508804199853,
stable,NA,stim_set/hard-vcom=4-23.png,160.29775125000015,161.25741379200008,stand,correct,0.9659898329991847,left,164.27377774999877,
stable,NA,stim_set/hard-214.png,164.32018079199952,165.32413141699908,stand,correct,1.01028079200114,left,168.34122924999974,
stable,NA,stim_set/easy-195.png,168.38316870800008,169.38223704200027,fall,correct,1.0053662079990318,right,172.3991944999998,
stable,NA,stim_set/easy-vcom=3-106.png,172.44112833299914,173.6908311669995,stand,correct,1.2556442090008204,left,176.70757270799913,
stable,NA,stim_set/hard-576.png,176.7439059999997,179.6924574579989,stand,correct,2.959345999999641,left,182.71359016699898,
stable,NA,stim_set/easy-vcom=1-87.png,182.75905791699915,186.3258875829997,stand,correct,3.577642417001698,left,189.3468478750001,
stable,NA,stim_set/easy-228.png,189.3833022079998,190.37616999999955,fall,correct,1.0034373750004306,right,193.39717958300025,
stable,NA,stim_set/hard-vcom=2-100.png,193.44005495799865,194.55111229199974,stand,correct,1.1219681659986236,left,197.5722592080001,
stable,NA,stim_set/easy-122.png,197.61450504200002,198.6014177500001,fall,incorrect,0.9968676249991404,right,201.62181774999954,
stable,NA,stim_set/hard-vcom=3-145.png,201.65786441699856,203.44292841700008,stand,incorrect,1.7958990409988473,left,206.4643979169996,
stable,NA,stim_set/hard-vcom=1-130.png,206.50583254199955,209.2073812919989,stand,correct,2.707681042000331,left,212.22356666699852,
stable,NA,stim_set/hard-492.png,212.2674273749999,215.16587304199857,stand,correct,2.904502458999559,left,218.1825049170002,
stable,NA,stim_set/easy-233.png,218.2292184580001,219.40757674999986,fall,correct,1.1833411670013447,right,222.42322845799936,
stable,NA,stim_set/easy-239.png,222.46762362499976,223.64085483300005,fall,correct,1.179236416999629,right,226.65734279199933,
stable,NA,stim_set/easy-vcom=3-121.png,226.70195212499857,229.84294783299993,stand,incorrect,3.151434082999913,left,232.86362324999936,
stable,NA,stim_set/hard-vcom=3-143.png,232.90523804199984,235.5158664999999,stand,correct,2.616945374998977,left,238.5325144999988,
stable,NA,stim_set/easy-8.png,238.5728222079997,239.74900158299897,fall,correct,1.1827162919998955,right,242.7662072919993,
unstable,stand,stim_set/hard-14.png,250.74719295799878,255.16588254199996,stand,incorrect,4.4238335419995565,left,258.1820415000002,
unstable,stand,stim_set/easy-164.png,258.2284510419995,259.7326511249994,fall,correct,1.5103416660003859,right,262.74964183299926,
unstable,stand,stim_set/easy-28.png,262.7940622499991,265.5411249579993,fall,correct,2.7529566249995696,right,268.55762137499914,
unstable,stand,stim_set/hard-vcom=4-139.png,268.5996109579992,270.0677592079992,stand,correct,1.4790118339988112,left,273.08890124999925,
unstable,stand,stim_set/easy-542.png,273.13521262499853,274.0259150419988,fall,correct,0.901464542001122,right,277.0470177499992,
unstable,stand,stim_set/hard-555.png,277.08930637499907,278.9762530829994,stand,correct,1.8975305000003573,left,281.99714120799945,
unstable,stand,stim_set/hard-440.png,282.04022199999963,282.94936208299987,fall,correct,0.9149427089996607,right,285.9658798749988,
unstable,stand,stim_set/hard-78.png,286.0103379579996,286.97629145799874,stand,correct,0.9765669170010369,left,289.99685537499863,
unstable,stand,stim_set/hard-600.png,290.03268045799996,292.24273641699983,stand,correct,2.220688457999131,left,295.263758957999,
unstable,stand,stim_set/hard-vcom=4-88.png,295.30544287500015,296.40764662499896,stand,correct,1.1079328329997225,left,299.42413637499885,
unstable,stand,stim_set/hard-286.png,299.47086070799924,300.39946558299926,stand,correct,0.9352551249994576,left,303.41961770799935,
unstable,stand,stim_set/hard-vcom=4-27.png,303.46684079199986,305.00979854199977,stand,incorrect,1.5536922499995853,left,308.0308585419989,
unstable,stand,stim_set/easy-vcom=2-73.png,308.0723142499992,311.05959941699984,stand,incorrect,2.9977479159988434,left,314.0802889579991,
unstable,stand,stim_set/easy-586.png,314.1245476669992,315.1345418330002,fall,correct,1.0207215419995919,right,318.1559591669993,
unstable,stand,stim_set/hard-vcom=4-147.png,318.20278533300007,319.7574958749992,stand,correct,1.559948041998723,left,322.77311870799895,
unstable,stand,stim_set/hard-441.png,322.8137192079994,326.359606,fall,correct,3.5563815830009844,right,329.3805055419998,
unstable,stand,stim_set/hard-280.png,329.4266148329989,331.1494204999999,stand,correct,1.729082500000004,left,334.16639895799926,
unstable,stand,stim_set/easy-304.png,334.2137277499987,335.199381082999,fall,incorrect,0.9914937090015883,right,338.21583029199974,
unstable,stand,stim_set/easy-411.png,338.26254233299915,339.1596590829995,fall,correct,0.9077924579996761,right,342.1807140000001,
unstable,stand,stim_set/easy-vcom=1-12.png,342.22684191699955,345.7177781669998,stand,correct,3.5020795420005015,left,348.73902758299846,
unstable,stand,stim_set/hard-vcom=4-22.png,348.78592212500007,350.09118458299963,stand,correct,1.3119792500001495,left,353.1102972919998,
unstable,stand,stim_set/easy-318.png,353.154923832999,354.06810154199957,fall,correct,0.9236191250001866,right,357.0891478329995,
unstable,stand,stim_set/hard-vcom=1-92.png,357.13582320800015,357.8931897499988,fall,correct,0.7676723750009842,right,360.9144381669994,
unstable,stand,stim_set/hard-vcom=2-95.png,360.9506819170001,361.98284433299887,stand,correct,1.0379874589998508,left,364.99883908299853,
unstable,stand,stim_set/hard-vcom=3-142.png,365.0454977919999,366.44326629199895,stand,correct,1.4079162919988448,left,369.46414079199894,
stable,stand,stim_set/hard-vcom=2-100.png,4.0188563329993485,7.1408600409995415,stand,correct,3.1275458750005782,left,10.160316165998665,
stable,stand,stim_set/hard-369.png,10.196552249999513,11.949074374999327,fall,correct,1.7584944999998697,right,14.96617299999889,
stable,stand,stim_set/easy-233.png,15.013358541000343,16.207761707999452,fall,correct,1.1999790829995618,right,19.22355124999922,
stable,stand,stim_set/hard-576.png,19.259732124999573,20.957759040999008,fall,incorrect,1.7039412920003087,right,23.974120499999117,
stable,stand,stim_set/hard-vcom=1-95.png,24.01603299999988,28.898982040998817,fall,incorrect,4.889208625001629,right,31.915241208000225,
stable,stand,stim_set/easy-228.png,31.95160666599986,32.80781304099946,fall,correct,0.8617982080013462,right,35.82404562499869,
stable,stand,stim_set/hard-214.png,35.87024254099924,36.799279957998806,stand,correct,0.9352284579999832,left,39.816098290999435,
stable,stand,stim_set/easy-122.png,39.85866366600021,40.71596758299893,fall,incorrect,0.8632997090007848,right,43.732875624999,
stable,stand,stim_set/easy-8.png,43.77327595799943,44.57426029099952,fall,correct,0.8070494580006198,right,47.59045437500026,
stable,stand,stim_set/hard-vcom=3-143.png,47.63225062499987,49.590853915999105,stand,correct,1.9647357920002833,left,52.60715125000024,
stable,stand,stim_set/easy-vcom=3-106.png,52.64901720799935,54.82449095799893,stand,correct,2.180924624999534,left,57.84070162500029,
stable,stand,stim_set/hard-vcom=3-82.png,57.88548304100004,58.75734683299925,stand,correct,0.8789586670009157,left,61.77720329099975,
stable,stand,stim_set/hard-492.png,61.82074554099927,63.16796774999966,stand,correct,1.357641042000978,left,66.1884286659988,
stable,stand,stim_set/easy-11.png,66.23305245799929,67.10774074999972,fall,correct,0.8807603329987614,right,70.12404879099995,
stable,stand,stim_set/easy-344.png,70.16552479100028,71.3994964579997,fall,correct,1.2401481249999051,right,74.41645645799872,
stable,stand,stim_set/hard-410.png,74.46246983299898,75.97453599999972,stand,incorrect,1.5186054169989802,left,78.99422870799935,
stable,stand,stim_set/easy-vcom=1-87.png,79.04011575000004,80.06601170799877,fall,incorrect,1.0325750419997348,right,83.08539729099903,
stable,stand,stim_set/easy-vcom=3-121.png,83.1302658329987,83.90773341599925,fall,correct,0.7833383749984932,right,86.9241018749999,
stable,stand,stim_set/hard-vcom=3-145.png,86.96036237499902,87.9577632499986,stand,incorrect,1.00375987499865,left,90.97473033299866,
stable,stand,stim_set/hard-vcom=4-23.png,91.01731479099908,92.41606837499967,stand,correct,1.4050204169998324,left,95.43266791600036,
stable,stand,stim_set/easy-239.png,95.47689154099862,96.60809612499907,fall,correct,1.1367996249991847,right,99.62402524999925,
stable,stand,stim_set/hard-vcom=1-130.png,99.66557404099876,104.46621204099938,fall,incorrect,4.806829958999515,right,107.4825126249998,
stable,stand,stim_set/hard-599.png,107.5185091659987,108.67460183299954,stand,correct,1.1623450000006414,left,111.6911794159987,
stable,stand,stim_set/easy-195.png,111.73330879099922,112.78281937499924,fall,correct,1.0555029999995895,right,115.79920412499996,
stable,stand,stim_set/hard-vcom=4-132.png,115.8395768749997,119.42451020800036,stand,correct,3.5905893339986505,left,122.44052304099932,
unstable,fall,stim_set/hard-vcom=4-27.png,127.2712025410001,129.734289041,stand,incorrect,2.473200916998394,left,132.75679187499918,
unstable,fall,stim_set/hard-280.png,132.80294349999895,135.4162562499987,stand,correct,2.619270332999804,left,138.43286608299968,
unstable,fall,stim_set/easy-304.png,138.4773561660004,140.0350868329988,fall,incorrect,1.5678707080005552,right,143.05604754100023,
unstable,fall,stim_set/hard-440.png,143.09830633299862,144.2079760409997,fall,correct,1.1157160000002477,right,147.22437112499938,
unstable,fall,stim_set/easy-vcom=1-12.png,147.27009733299928,148.89292575000036,stand,correct,1.633714792000319,left,151.91454229099872,
unstable,fall,stim_set/easy-164.png,151.96098416600034,152.81623758299975,fall,correct,0.8611730840002565,right,155.832278124999,
unstable,fall,stim_set/easy-vcom=2-73.png,155.8736331250002,157.43273145799867,fall,correct,1.5656482499998674,right,160.44925870800034,
unstable,fall,stim_set/hard-555.png,160.49119995799992,161.31621566600006,stand,correct,0.8314182499998424,left,164.33558787499896,
unstable,fall,stim_set/easy-586.png,164.37938066599963,165.23276520800027,fall,correct,0.8596427920001588,right,168.24946554099915,
unstable,fall,stim_set/hard-vcom=3-142.png,168.29597462499987,169.21831079099866,stand,correct,0.9327418339998985,left,172.23898133299917,
unstable,fall,stim_set/hard-vcom=4-88.png,172.2804818329987,173.1080627909996,stand,correct,0.8330654580004193,left,176.12439283299864,
unstable,fall,stim_set/hard-441.png,176.16475449999962,177.62456637499963,fall,correct,1.465986791999967,right,180.64094708300036,
unstable,fall,stim_set/hard-vcom=4-147.png,180.68740112500018,181.5849674580004,stand,correct,0.9079890829998476,left,184.6060294580002,
unstable,fall,stim_set/hard-14.png,184.64192345799893,186.47472262500014,stand,incorrect,1.8380948340000032,left,189.49071962499875,
unstable,fall,stim_set/hard-78.png,189.53512016599961,190.6433342909986,stand,correct,1.1186334160011029,left,193.6647379999995,
unstable,fall,stim_set/easy-318.png,193.70930237500033,194.60222970799987,fall,correct,0.9026463749996765,right,197.62243004099946,
unstable,fall,stim_set/hard-vcom=4-139.png,197.66469883299942,198.5997679159991,stand,correct,0.9410239590015408,left,201.6162695410003,
unstable,fall,stim_set/easy-411.png,201.66274004099978,202.54130149999946,fall,correct,0.8852299169993785,right,205.56128549999994,
unstable,fall,stim_set/hard-vcom=1-92.png,205.60763062499973,206.78297020799982,stand,incorrect,1.181858416999603,left,209.7996543749996,
unstable,fall,stim_set/easy-542.png,209.845282708,210.8331014159994,fall,correct,0.9941229169999133,right,213.8495595409986,
unstable,fall,stim_set/hard-vcom=2-95.png,213.88575195799967,214.81624833299975,stand,correct,0.9364679589998559,left,217.83260637499916,
unstable,fall,stim_set/hard-286.png,217.87946887500038,219.58296058300039,stand,correct,1.7098984590011241,left,222.59986754099918,
unstable,fall,stim_set/easy-28.png,222.6440418330003,223.49980999999934,fall,correct,0.8618728749988804,right,226.51647833300012,
unstable,fall,stim_set/hard-vcom=4-22.png,226.56311733300026,227.4765754580003,stand,correct,0.9242468749998807,left,230.49779212499925,
unstable,fall,stim_set/hard-600.png,230.53399229099887,231.42631787499886,stand,correct,0.9032968330011499,left,234.44782225000017,
stable,stand,stim_set/easy-63.png,239.89967624999917,241.4497494999996,fall,correct,1.5554356660013582,right,244.46660062499905,
stable,stand,stim_set/hard-563.png,244.5148366659996,246.99117191599908,fall,incorrect,2.4827012499990815,right,250.00779933299964,
stable,stand,stim_set/hard-vcom=2-16.png,250.05626833299903,251.11815770799876,stand,correct,1.072839959000703,left,254.13950745799957,
stable,stand,stim_set/easy-vcom=4-69.png,254.18683991599937,255.64330283299932,fall,correct,1.4666571670004487,right,258.663882249999,
stable,stand,stim_set/easy-31.png,258.709692082999,259.5078456249994,fall,incorrect,0.8048915839990514,right,262.5245932910002,
stable,stand,stim_set/easy-vcom=2-3.png,262.570348833,264.01003266599946,fall,correct,1.4501642920004088,right,267.0312282499999,
stable,stand,stim_set/easy-590.png,267.0794837909998,267.9664659579994,fall,correct,0.8931455419988197,right,270.98275187499894,
stable,stand,stim_set/hard-570.png,271.0319556659997,272.052180749999,stand,correct,1.030553124999642,left,275.07284858299863,
stable,stand,stim_set/hard-vcom=1-3.png,275.11735416599913,276.11652979099927,stand,correct,1.004737416998978,left,279.13358516599874,
stable,stand,stim_set/hard-vcom=2-45.png,279.1717171250002,281.1248281249991,stand,incorrect,1.9596782909993635,left,284.14422029100024,
stable,stand,stim_set/easy-538.png,284.18644183299875,284.9999738329989,fall,correct,0.8194334170002548,right,288.0165117910001,
stable,stand,stim_set/hard-474.png,288.0599382499986,288.83525412499876,fall,correct,0.7856712909997441,right,291.85590095800035,
stable,stand,stim_set/easy-vcom=4-126.png,291.90399162500034,293.70155954099937,stand,incorrect,1.8083989999995538,left,296.723163790999,
stable,stand,stim_set/easy-vcom=3-142.png,296.7695128329997,297.8853945409992,stand,correct,1.1267366249994666,left,300.90650133300005,
stable,stand,stim_set/hard-367.png,300.950284999999,302.13286791599967,stand,correct,1.188914874999682,left,305.1495257909992,
stable,stand,stim_set/hard-vcom=4-130.png,305.1936716660002,307.0914493330001,stand,incorrect,1.9036817919986788,left,310.1081269160004,
stable,stand,stim_set/hard-451.png,310.15474195800016,311.23321620800016,fall,correct,1.0846705000003567,right,314.24981691599896,
stable,stand,stim_set/easy-vcom=3-125.png,314.2981487500001,316.34130691599967,fall,incorrect,2.050106874999983,right,319.3581447910001,
stable,stand,stim_set/easy-vcom=1-73.png,319.39589104100014,321.21085712499917,fall,incorrect,1.8248674160004157,right,324.2314932909994,
stable,stand,stim_set/easy-280.png,324.27428204100033,327.0187385829995,fall,correct,2.7547830419989623,right,330.03986837499906,
stable,stand,stim_set/easy-20.png,330.083570666,331.3582511249988,fall,correct,1.2812662920005096,right,334.37494333299946,
stable,stand,stim_set/hard-40.png,334.4211739579987,335.7352110409993,stand,correct,1.3247081669996987,left,338.7562980829989,
stable,stand,stim_set/hard-vcom=4-45.png,338.8020490830004,342.29381120799917,fall,correct,3.5021996249997756,right,345.3148432910002,
stable,stand,stim_set/easy-vcom=1-83.png,345.3526584579995,346.90829095799927,fall,incorrect,1.5617883749982866,right,349.9247830000004,
stable,stand,stim_set/hard-vcom=4-67.png,349.96911912500036,351.36024262499996,fall,correct,1.4016522080000868,right,354.3812113749991,
unstable,fall,stim_set/hard-442.png,3.9237087080000492,7.295688207999774,stand,correct,3.3768232920010632,left,10.312646292000863,
unstable,fall,stim_set/hard-2.png,10.358741957999882,11.89774458300053,fall,incorrect,1.5490992920003919,right,14.918291207999573,
unstable,fall,stim_set/hard-vcom=2-20.png,14.965797500000917,16.204075083000134,stand,correct,1.2445532499987166,left,19.220600542001193,
unstable,fall,stim_set/hard-382.png,19.25795641700097,21.595786292000412,stand,correct,2.3436325830007263,left,24.611787583000478,
unstable,fall,stim_set/hard-vcom=2-144.png,24.64948650000042,26.539191207999465,stand,incorrect,1.9004807910005184,left,29.56042904199967,
unstable,fall,stim_set/hard-271.png,29.607264166999812,30.71214058300029,stand,correct,1.111085832999379,left,33.728629332999844,
unstable,fall,stim_set/hard-439.png,33.77275675000055,35.08096699999987,fall,correct,1.3187611670000479,right,38.10211012500076,
unstable,fall,stim_set/hard-590.png,38.14857516700067,40.77080316700085,stand,incorrect,2.6285370420009713,left,43.787555291999524,
unstable,fall,stim_set/hard-432.png,43.83499412499987,44.972231208001176,fall,correct,1.1482767079996847,right,47.993689332999566,
unstable,fall,stim_set/hard-82.png,48.0417635419999,50.17910549999942,stand,correct,2.1438520000010612,left,53.19583150000108,
unstable,fall,stim_set/easy-77.png,53.239576125000895,54.147807917001046,fall,correct,0.918771333001132,right,57.168558332999964,
unstable,fall,stim_set/hard-388.png,57.2064137920006,59.71455779200005,stand,correct,2.518599166000058,left,62.73563154200019,
unstable,fall,stim_set/easy-vcom=3-136.png,62.77700854199975,63.806321292000575,fall,incorrect,1.0396748749990365,right,66.82689666700026,
unstable,fall,stim_set/easy-vcom=1-145.png,66.87257404199954,68.25430137500007,stand,correct,1.38782112500121,left,71.27072537499953,
unstable,fall,stim_set/hard-552.png,71.31648375000077,72.27921700000115,stand,correct,0.9687729170000239,left,75.29591274999984,
unstable,fall,stim_set/hard-345.png,75.33931033299996,76.36237620800057,fall,correct,1.029376542001046,right,79.37912925000091,
unstable,fall,stim_set/easy-13.png,79.42746641700069,80.39797979200011,fall,correct,0.9808091670001886,right,83.41886870800045,
unstable,fall,stim_set/hard-556.png,83.46111754199956,84.49586508299944,stand,correct,1.0415374160002102,left,87.51313970800038,
unstable,fall,stim_set/hard-vcom=1-5.png,87.55674945800092,88.91242587499983,stand,correct,1.3618037500000355,left,91.92876591700042,
unstable,fall,stim_set/hard-vcom=3-100.png,91.97242262500004,93.62913366700013,stand,incorrect,1.6627883749988541,left,96.6458397080005,
unstable,fall,stim_set/hard-371.png,96.68291695799962,97.68740233300014,fall,incorrect,1.0109088749995863,right,100.70417116700082,
unstable,fall,stim_set/easy-121.png,100.75215016699985,101.62330708300033,fall,incorrect,0.8814619579989085,right,104.64428833300008,
unstable,fall,stim_set/hard-21.png,104.68706545799978,105.7311727920005,stand,correct,1.0546731670001463,left,108.75174379199962,
unstable,fall,stim_set/easy-vcom=4-4.png,108.79570862500077,109.65643320799973,fall,correct,0.8713310420007474,right,112.67733641700033,
unstable,fall,stim_set/easy-vcom=4-19.png,112.72499633299958,114.13760066699979,stand,incorrect,1.4188864169991575,left,117.1546261250005,
stable,NA,stim_set/hard-vcom=4-45.png,121.68017179200069,124.20435429200006,fall,correct,2.529283084000781,right,127.22087020800063,
stable,NA,stim_set/easy-vcom=4-126.png,127.26735416700103,130.17918354200083,stand,incorrect,2.9186080830004357,left,133.19615850000082,
stable,NA,stim_set/easy-vcom=1-73.png,133.2326863750004,134.59816958299962,fall,incorrect,1.3760661670003174,right,137.61935783300032,
stable,NA,stim_set/easy-vcom=1-83.png,137.65550379200067,139.6229094579994,stand,correct,1.977930707998894,left,142.64382566700078,
stable,NA,stim_set/hard-vcom=4-130.png,142.68641320800089,143.97105979200023,stand,incorrect,1.290715375000218,left,146.9874587080012,
stable,NA,stim_set/easy-20.png,147.03004574999977,147.91448633300024,fall,correct,0.8946869159990456,right,150.9355040829996,
stable,NA,stim_set/hard-vcom=1-3.png,150.97857291699984,152.35411849999946,stand,correct,1.3815511249995325,left,155.37063816699992,
stable,NA,stim_set/hard-vcom=2-45.png,155.40666783300003,157.89764008299971,fall,correct,2.50216516600085,right,160.91895179200037,
stable,NA,stim_set/hard-474.png,160.96137904200077,163.63787966699965,fall,correct,2.6826183749999473,right,166.65440837499955,
stable,NA,stim_set/easy-vcom=2-3.png,166.6987202500004,170.82953820799958,stand,incorrect,4.136629250000624,left,173.84586687500087,
stable,NA,stim_set/hard-367.png,173.8886257920003,174.86284162499942,stand,correct,0.9800156660003267,left,177.87890850000076,
stable,NA,stim_set/easy-538.png,177.91969979200076,178.80469195800106,fall,correct,0.891373417000068,right,181.82140000000072,
stable,NA,stim_set/hard-563.png,181.86857008300103,184.28977108300023,stand,correct,2.431972667000082,left,187.31103516700023,
stable,NA,stim_set/hard-451.png,187.35633162500017,188.64831525000045,fall,correct,1.3023547499997221,right,191.66893379199973,
stable,NA,stim_set/easy-280.png,191.7110321250002,192.5484232079998,fall,correct,0.8474585829990247,right,195.56860116700045,
stable,NA,stim_set/easy-63.png,195.61022579200107,196.51285587500024,fall,correct,0.9085318340003141,right,199.52943012499964,
stable,NA,stim_set/easy-vcom=3-142.png,199.574519875001,202.84016787499968,fall,incorrect,3.275924290999683,right,205.86137620800037,
stable,NA,stim_set/hard-vcom=4-67.png,205.90390066700093,208.68784500000038,fall,correct,2.790056290999928,right,211.70448299999953,
stable,NA,stim_set/hard-vcom=2-16.png,211.75194991700118,212.71267508300116,stand,correct,0.9675344999996014,left,215.72962245800045,
stable,NA,stim_set/easy-31.png,215.77370466700086,216.64605508299974,fall,incorrect,0.8787035839995951,right,219.66298333300074,
stable,NA,stim_set/easy-vcom=4-69.png,219.70875650000016,222.48784158300077,stand,incorrect,2.78525795799942,left,225.50418291700043,
stable,NA,stim_set/hard-570.png,225.5509416670011,226.57955329200013,stand,correct,1.0351024169995071,left,229.5964547500007,
stable,NA,stim_set/easy-vcom=3-125.png,229.64372104200083,233.12086595800065,stand,correct,3.4836660830005712,left,236.13803650000045,
stable,NA,stim_set/easy-590.png,236.18496374999995,237.28816570799972,fall,correct,1.1086303329993825,right,240.30442025000048,
stable,NA,stim_set/hard-40.png,240.34934916699967,241.58998491700004,stand,correct,1.2510375829988334,left,244.6114193329995,
stable,fall,stim_set/hard-410.png,251.3619670420012,254.17308341700118,stand,incorrect,2.8207506250000733,left,257.1938600829999,
stable,fall,stim_set/easy-239.png,257.2379218750011,258.34609779200036,fall,correct,1.1141906670000026,right,261.36293291699985,
stable,fall,stim_set/easy-8.png,261.40355029199964,262.1979405830007,fall,correct,0.8051855419998901,right,265.21912104200055,
stable,fall,stim_set/easy-344.png,265.26093333300014,266.75660224999956,fall,correct,1.5064874579984462,right,269.7787829170011,
stable,fall,stim_set/easy-122.png,269.8210582920001,270.67941379200056,fall,incorrect,0.8647113330007414,right,273.6959112500008,
stable,fall,stim_set/easy-233.png,273.74243795800066,274.57109825000043,fall,correct,0.8350541660001909,right,277.5874547080002,
stable,fall,stim_set/easy-vcom=1-87.png,277.6328672920008,279.7880471669996,stand,correct,2.1611271660003695,left,282.8045396670004,
stable,fall,stim_set/hard-vcom=1-95.png,282.84627637499943,285.154354667,stand,correct,2.3144019169994863,left,288.1711785000007,
stable,fall,stim_set/easy-195.png,288.21308741699977,288.93779883299976,fall,correct,0.7310655830005999,right,291.95494320800026,
stable,fall,stim_set/hard-vcom=4-132.png,291.99533645799966,292.771324542,fall,incorrect,0.7820870420000574,right,295.78775083300025,
stable,fall,stim_set/hard-369.png,295.8237291250007,299.2402513750003,stand,incorrect,3.427155291999952,left,302.2610113330011,
stable,fall,stim_set/hard-492.png,302.3045335830011,303.9630949170005,stand,correct,1.6646486669997103,left,306.97957875000066,
stable,fall,stim_set/hard-vcom=3-82.png,307.02425658299944,308.39633200000026,stand,correct,1.3778060000004189,left,311.4126079580001,
stable,fall,stim_set/hard-vcom=1-130.png,311.45444970800054,313.16513745799966,stand,correct,1.7209739169993554,left,316.1856299579995,
stable,fall,stim_set/hard-599.png,316.22140087499974,318.07967712500067,stand,correct,1.8640757499997562,left,321.09585250000055,
stable,fall,stim_set/easy-vcom=3-121.png,321.1404220000004,323.69630574999974,fall,correct,2.562310792000062,right,326.7126595000009,
stable,fall,stim_set/hard-576.png,326.7491782500001,328.04027233300076,stand,correct,1.3016382080004405,left,331.0609973749997,
stable,fall,stim_set/hard-214.png,331.10721533300057,332.01489912500074,stand,correct,0.9183441250006581,left,335.0357764170003,
stable,fall,stim_set/easy-vcom=3-106.png,335.07764108300034,335.90446404199974,stand,correct,0.833344250000664,left,338.9214419580003,
stable,fall,stim_set/easy-228.png,338.95740945800026,340.0130901249995,fall,correct,1.0618775000002643,right,343.02982108300057,
stable,fall,stim_set/easy-11.png,343.0720060420008,344.0818620000009,fall,correct,1.0203234580003482,right,347.10341716699986,
stable,fall,stim_set/hard-vcom=3-143.png,347.14510766700005,349.72953100000086,stand,correct,2.590947332999349,left,352.7494082080011,
stable,fall,stim_set/hard-vcom=3-145.png,352.7855999580006,353.7215473750002,stand,incorrect,0.942013957999734,left,356.73811166700034,
stable,fall,stim_set/hard-vcom=4-23.png,356.7809854170009,357.9651400420007,stand,correct,1.1946520830006193,left,360.98607699999957,
stable,fall,stim_set/hard-vcom=2-100.png,361.0290858749995,362.2132476250008,stand,correct,1.1896785000008094,left,365.2293107500009,
