batch_type,motivation,towers,trial_start,stim_on,choice,acc,rt,key,trial_end,score
unstable,NA,stim_set/easy-164.png,5.498920666999766,7.836814124999364,fall,correct,2.3467172920027224,right,10.85985887499919,247.0
unstable,NA,stim_set/hard-vcom=1-92.png,10.909770499998558,12.468773499997042,fall,correct,1.5652600840003288,right,15.485552541998914,
unstable,NA,stim_set/hard-vcom=4-22.png,15.535562457997003,16.895376166998176,stand,correct,1.3706179170003452,left,19.916533791998518,
unstable,NA,stim_set/hard-78.png,19.962980500000413,21.84384762499758,stand,correct,1.886984749999101,left,24.860317457998462,
unstable,NA,stim_set/hard-441.png,24.903151708000223,26.236962082999526,fall,correct,1.344536042000982,right,29.257901791999757,
unstable,NA,stim_set/hard-vcom=3-142.png,29.306743249999272,31.260373457997048,stand,correct,1.9593799159993068,left,34.27648245799719,
unstable,NA,stim_set/easy-304.png,34.322719249998045,36.636854416999995,fall,incorrect,2.3252207089972217,right,39.65820133299712,
unstable,NA,stim_set/hard-vcom=4-88.png,39.70184191699809,41.47710366699903,stand,correct,1.7814554590004263,left,44.49335366699961,
unstable,NA,stim_set/hard-vcom=4-139.png,44.53861629200037,47.30347187499865,stand,correct,2.776290583999071,left,50.3255153329992,
unstable,NA,stim_set/hard-600.png,50.363424416998896,52.69576233299813,stand,correct,2.3429750830000557,left,55.716677666998294,
unstable,NA,stim_set/easy-vcom=2-73.png,55.7600461669972,57.1853487499975,fall,correct,1.4312561250008002,right,60.201656499997625,
unstable,NA,stim_set/hard-vcom=2-95.png,60.23938712499876,62.8938505829974,stand,correct,2.6604198750028445,left,65.90988254199692,
unstable,NA,stim_set/hard-vcom=4-147.png,65.95918774999882,68.23553895799705,stand,correct,2.28196399999797,left,71.25150095799836,
unstable,NA,stim_set/hard-14.png,71.28932274999897,73.96904970799733,fall,correct,2.68514233300084,right,76.98453762499776,
unstable,NA,stim_set/easy-542.png,77.03195266699913,78.4355410829994,fall,correct,1.4096770420001121,right,81.4520707499978,
unstable,NA,stim_set/easy-411.png,81.49975929199718,82.65235133299939,fall,correct,1.157949959000689,right,85.66824245799944,
unstable,NA,stim_set/easy-28.png,85.7145743330002,86.74384749999808,fall,correct,1.0351029160010512,right,89.760000708,
unstable,NA,stim_set/hard-vcom=4-27.png,89.80873179199989,93.3288135829971,fall,correct,3.5312912080007663,right,96.35064570800023,
unstable,NA,stim_set/easy-318.png,96.39699154199843,97.56883641699824,fall,correct,1.178359499997896,right,100.58543274999829,
unstable,NA,stim_set/hard-286.png,100.63434720799705,102.09547737499815,stand,correct,1.4724686249974184,left,105.11678649999885,
unstable,NA,stim_set/hard-440.png,105.16107799999736,107.01062066699888,fall,correct,1.8549338749980961,right,110.02647541699844,
unstable,NA,stim_set/hard-555.png,110.0706552499978,111.819109707998,stand,correct,1.7538657500008412,left,114.83586837499752,
unstable,NA,stim_set/hard-280.png,114.88388175,117.61078762499892,stand,correct,2.732633542000258,left,120.62673345799703,
unstable,NA,stim_set/easy-586.png,120.67304254199917,122.48746983299861,fall,correct,1.8252224999996542,right,125.5086787500004,
unstable,NA,stim_set/easy-vcom=1-12.png,125.5564842499989,127.38568545799717,stand,correct,1.8349332500001765,left,130.40141691700046,
unstable,NA,stim_set/hard-271.png,143.87559154199698,147.18718341699787,fall,incorrect,3.3216853749981965,right,150.2085049169982,
unstable,NA,stim_set/hard-590.png,150.2562259169972,152.31908333299725,fall,correct,2.0684948330017505,right,155.33503295799892,
unstable,NA,stim_set/easy-vcom=3-136.png,155.37729837499865,157.97750783299853,stand,correct,2.605249374999403,left,160.9931469999974,
unstable,NA,stim_set/hard-382.png,161.03128804199878,162.18566474999898,stand,correct,1.1604243330002646,left,165.20208875000026,
unstable,NA,stim_set/hard-vcom=3-100.png,165.2461483329971,167.77893199999744,fall,correct,2.5434175839982345,right,170.79972387499947,
unstable,NA,stim_set/easy-vcom=4-4.png,170.84372012499807,171.90412920800009,fall,correct,1.071649666999292,right,174.92552245799743,
unstable,NA,stim_set/hard-vcom=1-5.png,174.9702722919974,176.84417766699698,stand,correct,1.8799600000020291,left,179.86053583299872,
unstable,NA,stim_set/hard-21.png,179.9038164579979,181.35254641699794,stand,correct,1.4548301249997166,left,184.36869737499728,
unstable,NA,stim_set/easy-13.png,184.41724429199894,186.368884042,fall,correct,1.9574845839997579,right,189.38527062499998,
unstable,NA,stim_set/hard-552.png,189.43194433299868,192.92094449999786,stand,correct,3.4996109579988115,left,195.94198291700013,
unstable,NA,stim_set/hard-556.png,195.98507387499922,197.98570133300018,stand,correct,2.0069465000015043,left,201.0026885829975,
unstable,NA,stim_set/hard-vcom=2-144.png,201.0409359169971,203.94427941699905,stand,incorrect,2.9090727089969732,left,206.95988704199772,
unstable,NA,stim_set/easy-vcom=4-19.png,207.00805874999787,209.97912345799705,stand,incorrect,2.981504291998135,left,213.00018524999905,
unstable,NA,stim_set/easy-77.png,213.0448504579981,214.12945458299873,fall,correct,1.0949694590017316,right,217.15029279199734,
unstable,NA,stim_set/hard-432.png,217.1989204169986,218.15268745799767,fall,correct,0.9588778329998604,right,221.16898891699748,
unstable,NA,stim_set/hard-439.png,221.21338320799987,222.62055608299852,fall,correct,1.4183569160013576,right,225.64194299999872,
unstable,NA,stim_set/hard-388.png,225.6797816670005,228.87758333300008,stand,correct,3.2033374999991793,left,231.89323395799875,
unstable,NA,stim_set/hard-442.png,231.94173670799864,233.56934495799942,stand,correct,1.6332027909993485,left,236.58518812499824,
unstable,NA,stim_set/easy-121.png,236.6335615829994,237.94607995799743,fall,incorrect,1.3231370829998923,right,240.96739129199705,
unstable,NA,stim_set/hard-371.png,241.00455337499807,242.05263408300016,fall,incorrect,1.0540315420003026,right,245.06884424999953,
unstable,NA,stim_set/hard-2.png,245.11516858299728,246.78728324999975,stand,correct,1.6836217079980997,left,249.80876208299742,
unstable,NA,stim_set/easy-vcom=1-145.png,249.8547618329976,251.42097504199774,stand,correct,1.5774594579997938,left,254.44233954199808,
unstable,NA,stim_set/hard-82.png,254.4889480419988,256.6108424169979,stand,correct,2.1283396250000806,left,259.6278203330003,
unstable,NA,stim_set/hard-345.png,259.6721504579982,263.56914179199885,stand,incorrect,3.903393500000675,left,266.5885804169993,
unstable,NA,stim_set/hard-vcom=2-20.png,266.6364998749996,267.6208979999974,stand,correct,0.9949166250007693,left,270.6419292499995,
stable,stand,stim_set/hard-474.png,281.9940145419969,283.2794619999986,fall,correct,1.29536270799872,right,286.3009494170001,
stable,stand,stim_set/easy-20.png,286.34527429199807,289.25433274999887,fall,correct,2.9200521249986195,right,292.2754452079971,
stable,stand,stim_set/hard-vcom=4-45.png,292.3214479579983,295.4043681250005,fall,correct,3.0936284999988857,right,298.4253888329986,
stable,stand,stim_set/easy-vcom=1-73.png,298.46276099999886,300.98589233299936,stand,correct,2.5295115830012946,left,304.0027832079977,
stable,stand,stim_set/hard-vcom=4-67.png,304.04660279199743,306.7441751669976,fall,correct,2.703594457998406,right,309.7602347920001,
stable,stand,stim_set/easy-538.png,309.80257037499905,310.92782783299845,fall,correct,1.1309994170005666,right,313.9443963329977,
stable,stand,stim_set/easy-vcom=4-126.png,313.9926405829974,316.8695212499988,fall,correct,2.8825512919975154,right,319.88528416699774,
stable,stand,stim_set/easy-vcom=3-125.png,319.93416129199977,324.1465150419972,fall,incorrect,4.2228343750030035,right,327.1669257079993,
stable,stand,stim_set/easy-vcom=3-142.png,327.21347066700037,328.9610860829998,stand,correct,1.7531358749984065,left,331.9784006669979,
stable,stand,stim_set/easy-vcom=1-83.png,332.0161288329982,335.2445452920001,stand,correct,3.233927749999566,left,338.26075899999705,
stable,stand,stim_set/easy-63.png,338.30360420799843,339.5630885419996,fall,correct,1.2700118749999092,right,342.5843317079998,
stable,stand,stim_set/hard-451.png,342.6307183329991,345.603046207998,fall,correct,2.977824290999706,right,348.6190562919983,
stable,stand,stim_set/easy-31.png,348.6646417499978,350.4043994579988,fall,incorrect,1.7506999590004853,right,353.42545337499905,
stable,stand,stim_set/hard-vcom=1-3.png,353.47024029199747,354.70435679199727,stand,correct,1.2448833330017806,left,357.7260800829972,
stable,stand,stim_set/easy-280.png,357.76980600000024,358.9694007500002,fall,correct,1.20589554199978,right,361.9862802079988,
stable,stand,stim_set/hard-563.png,362.0351006669989,365.27116591699814,stand,correct,3.2470017919986276,left,368.2922368749969,
stable,stand,stim_set/hard-vcom=2-45.png,368.330682374999,370.26271558299777,stand,incorrect,1.9429875829991943,left,373.2841247919969,
stable,stand,stim_set/hard-570.png,373.3323475830002,374.66137983299996,stand,correct,1.3341950829999405,left,377.67695208299847,
stable,stand,stim_set/easy-vcom=2-3.png,377.7228387079995,380.2129197920003,fall,correct,2.5014082090019656,right,383.2341847919997,
stable,stand,stim_set/easy-vcom=4-69.png,383.281809832999,386.66110183300043,stand,incorrect,3.385862499999348,left,389.67776608299755,
stable,stand,stim_set/hard-40.png,389.72436404199834,390.8363944999983,stand,correct,1.118165500000032,left,393.852635291998,
stable,stand,stim_set/hard-vcom=4-130.png,393.8970301249974,397.6047472499995,stand,incorrect,3.71869204199902,left,400.62570483299714,
stable,stand,stim_set/hard-vcom=2-16.png,400.67469141699985,403.8129987079992,stand,correct,3.149431709000055,left,406.8342698749984,
stable,stand,stim_set/easy-590.png,406.8821444999994,409.32153291699797,fall,correct,2.450089083999046,right,412.3427138329971,
stable,stand,stim_set/hard-367.png,412.38677499999903,414.5962970419969,stand,correct,2.22021762499935,left,417.6173771670001,
stable,fall,stim_set/easy-vcom=4-126.png,8.515188249999483,10.00552470799812,fall,correct,1.4947803750001185,right,13.021504166998056,
stable,fall,stim_set/hard-vcom=2-16.png,13.068728457998077,14.396833499999047,stand,correct,1.3343055420009478,left,17.412973667000188,
stable,fall,stim_set/hard-474.png,17.45493791699846,19.05540554199979,fall,correct,1.6065648749972752,right,22.071521666999615,
stable,fall,stim_set/easy-vcom=2-3.png,22.115691582999716,23.84696704199814,fall,correct,1.737034334000782,right,26.86278562499865,
stable,fall,stim_set/easy-31.png,26.906911541998852,29.130251874998066,fall,incorrect,2.2294898340005602,right,32.14694604199758,
stable,fall,stim_set/easy-vcom=3-142.png,32.19362295799874,35.131369916998665,stand,correct,2.949046499998076,left,38.153130374998,
stable,fall,stim_set/hard-367.png,38.19647412499762,41.60689870799979,stand,correct,3.421147708002536,left,44.6287252919974,
stable,fall,stim_set/hard-563.png,44.681159624997235,47.288417916999606,stand,correct,2.612901749998855,left,50.30518329199913,
stable,fall,stim_set/hard-vcom=4-130.png,50.352772541999,54.330033791997266,stand,incorrect,3.982733583001391,left,57.34697141699871,
stable,fall,stim_set/easy-590.png,57.39741112499905,58.45715312500033,fall,correct,1.0701053750017309,right,61.47795037499964,
stable,fall,stim_set/easy-vcom=1-73.png,61.522981750000326,66.531798582997,NA,,,NA,71.66455329199744,
stable,fall,stim_set/easy-20.png,71.70923858300011,72.93871066700012,fall,correct,1.234856667000713,right,75.95485541699964,
stable,fall,stim_set/hard-570.png,76.00320637500045,77.36376437499712,stand,correct,1.3667932079988532,left,80.38031950000004,
stable,fall,stim_set/hard-vcom=4-45.png,80.42598495799757,81.90547041699756,fall,correct,1.4851860419985314,right,84.92128199999934,
stable,fall,stim_set/hard-vcom=4-67.png,84.96654108299845,86.2884544999979,fall,correct,1.3278968330014322,right,89.30511750000005,
stable,fall,stim_set/hard-451.png,89.35198104200026,90.730533791997,fall,correct,1.3840007090002473,right,93.74663729199892,
stable,fall,stim_set/easy-vcom=4-69.png,93.79432987499968,95.8072061669991,fall,correct,2.023157000003266,right,98.82865837499776,
stable,fall,stim_set/easy-vcom=1-83.png,98.86701320799693,100.88171220799995,stand,correct,2.0256895829988935,left,103.90379299999768,
stable,fall,stim_set/hard-vcom=2-45.png,103.94201133299794,106.62219662499774,fall,correct,2.6855588750004245,right,109.63781683299749,
stable,fall,stim_set/hard-40.png,109.68464237499938,111.63870754199888,stand,correct,1.9602706670011685,left,114.65517712499786,
stable,fall,stim_set/easy-vcom=3-125.png,114.70392862500012,116.21531395799684,fall,incorrect,1.5223143750008603,right,119.23707616699903,
stable,fall,stim_set/easy-538.png,119.2795926669969,122.01519958299832,fall,correct,2.7469016249997367,right,125.03694695800004,
stable,fall,stim_set/easy-280.png,125.08081316699827,126.05534274999809,fall,correct,0.9804224590006925,right,129.07184899999993,
stable,fall,stim_set/easy-63.png,129.11535691699828,130.14896524999858,fall,correct,1.043996333002724,right,133.17024754199883,
stable,fall,stim_set/hard-vcom=1-3.png,133.21516862499993,134.7738985420001,stand,correct,1.569321167000453,left,137.79494599999816,
stable,fall,stim_set/easy-233.png,153.5158938329987,154.738674041997,fall,correct,1.2272914159984794,right,157.75473054199756,
stable,fall,stim_set/easy-11.png,157.79917270799706,158.7472052919984,fall,correct,0.9538495419983519,right,161.76368620799985,
stable,fall,stim_set/easy-vcom=3-106.png,161.8081659169984,163.08018620799703,stand,correct,1.278099082999688,left,166.0963794579984,
stable,fall,stim_set/hard-vcom=4-23.png,166.1406487919994,169.03893424999842,stand,correct,2.904304250001587,left,172.05496929199944,
stable,fall,stim_set/hard-599.png,172.09275495799739,174.5971510829986,fall,incorrect,2.5100272909985506,right,177.6133807499973,
stable,fall,stim_set/easy-vcom=3-121.png,177.65982124999937,179.97392958300043,fall,correct,2.325166292001086,right,182.99487195799884,
stable,fall,stim_set/hard-vcom=2-100.png,183.039519791997,184.63875987499705,stand,correct,1.604949458000192,left,187.65469804199893,
stable,fall,stim_set/easy-344.png,187.6980759170001,188.7721615829978,fall,correct,1.0789119999972172,right,191.7877342920001,
stable,fall,stim_set/hard-vcom=3-143.png,191.83145700000023,194.67396454199843,fall,incorrect,2.8529984169981617,right,197.69458570799907,
stable,fall,stim_set/hard-576.png,197.73280345799867,199.43047274999844,fall,incorrect,1.703771874999802,right,202.4465718749998,
stable,fall,stim_set/hard-492.png,202.49203449999914,204.14718566699958,stand,correct,1.6612074170006963,left,207.16368966699883,
stable,fall,stim_set/hard-vcom=3-145.png,207.20123304200024,210.97381141699952,stand,incorrect,3.783172667001054,left,213.99480383300033,
stable,fall,stim_set/hard-vcom=1-130.png,214.03843958299694,216.02374108299773,stand,correct,1.9963198749974254,left,219.04482308299703,
stable,fall,stim_set/hard-369.png,219.08270295799957,221.10549349999928,fall,correct,2.0282514999998966,right,224.12133650000033,
stable,fall,stim_set/easy-vcom=1-87.png,224.16836979199797,226.67194691699842,fall,incorrect,2.509781374999875,right,229.68892208299803,
stable,fall,stim_set/hard-vcom=1-95.png,229.73256429200046,234.15547312499984,fall,incorrect,4.4286318339982245,right,237.17175612499705,
stable,fall,stim_set/hard-vcom=3-82.png,237.21786983299899,238.25547858299979,stand,correct,1.0435722920010448,left,241.27185937499962,
stable,fall,stim_set/hard-214.png,241.31977745800032,242.89031795799747,stand,correct,1.581725332998758,left,245.91172287500012,
stable,fall,stim_set/easy-195.png,245.95527345799928,247.1405574579985,fall,correct,1.1962439169983554,right,250.16151833299955,
stable,fall,stim_set/easy-8.png,250.2038496669993,251.20568416699825,fall,correct,1.0065338749991497,right,254.22201295799823,
stable,fall,stim_set/hard-410.png,254.26964233299805,256.1820451249987,fall,correct,1.9234549579996383,right,259.2032723329976,
stable,fall,stim_set/easy-239.png,259.2490965420002,261.03058491699994,fall,correct,1.7871042910010146,right,264.0464650419999,
stable,fall,stim_set/hard-vcom=4-132.png,264.08847091699863,265.463955291998,fall,incorrect,1.3811692090021097,right,268.48007049999796,
stable,fall,stim_set/easy-122.png,268.52418866699736,269.68168225000045,fall,incorrect,1.168789082999865,right,272.7040152919981,
stable,fall,stim_set/easy-228.png,272.74196545799714,273.8984959169975,fall,correct,1.1676509170029021,right,276.9198942080002,
stable,NA,stim_set/easy-vcom=2-3.png,288.9303568329997,290.30577195799924,fall,correct,1.3796669999974256,right,293.3212914169999,
stable,NA,stim_set/hard-451.png,293.3661893749995,294.5743045419986,fall,correct,1.218609125000512,right,297.5950117499997,
stable,NA,stim_set/hard-vcom=4-130.png,297.6392460419993,300.3738490420001,fall,correct,2.745399333001842,right,303.39463220799735,
stable,NA,stim_set/hard-vcom=2-16.png,303.4430266669988,304.5724240829986,stand,correct,1.1351146250017337,left,307.5886185829986,
stable,NA,stim_set/easy-20.png,307.63129345799825,308.755723667,fall,correct,1.1303235839986883,right,311.7716624169989,
stable,NA,stim_set/hard-vcom=4-45.png,311.8158232499991,313.43875858299725,fall,correct,1.6287613749991579,right,316.4552260419987,
stable,NA,stim_set/hard-563.png,316.50381924999965,319.74740074999863,fall,incorrect,3.249199125002633,right,322.7631230829975,
stable,NA,stim_set/hard-474.png,322.8064667919971,323.7902647919982,fall,correct,0.99493020799855,right,326.81183687500015,
stable,NA,stim_set/easy-31.png,326.85761970800013,327.94079212499855,fall,incorrect,1.0946428749994084,right,330.9627084999993,
stable,NA,stim_set/hard-vcom=1-3.png,331.00604199999725,332.5056917919974,stand,correct,1.5051664999991772,left,335.5224047499978,
stable,NA,stim_set/hard-vcom=4-67.png,335.5653659169984,336.71373412499815,fall,correct,1.1545534169999883,right,339.7298422499989,
stable,NA,stim_set/easy-590.png,339.778135499997,341.15571949999867,fall,correct,1.3835204999995767,right,344.17160458299986,
stable,NA,stim_set/easy-vcom=4-126.png,344.21966379199876,346.20570699999735,fall,correct,1.991834917000233,right,349.2218043749999,
stable,NA,stim_set/easy-63.png,349.2637272079992,350.1495939169981,fall,correct,0.8959913749968109,right,353.1698752919983,
stable,NA,stim_set/hard-367.png,353.2134698749978,355.7992715829969,stand,correct,2.5967552090005483,left,358.8202520419982,
stable,NA,stim_set/easy-vcom=3-125.png,358.8674120830001,362.09720429200024,fall,incorrect,3.235472749998735,right,365.11336587500045,
stable,NA,stim_set/easy-280.png,365.15551066699845,366.25593041699904,fall,correct,1.1055062920022465,right,369.27225454200016,
stable,NA,stim_set/easy-vcom=1-83.png,369.3084844579971,372.24063249999745,stand,correct,2.9432074169999396,left,375.2619007079993,
stable,NA,stim_set/hard-40.png,375.30752129199755,377.59905375000017,stand,correct,2.301888042002247,left,380.62005133300045,
stable,NA,stim_set/easy-vcom=3-142.png,380.666352207998,383.57385337499727,stand,correct,2.918758457999502,left,386.59564387499995,
stable,NA,stim_set/hard-570.png,386.642969499997,388.3824227499972,stand,correct,1.7501341249990219,left,391.404133582997,
stable,NA,stim_set/easy-vcom=4-69.png,391.44998516699707,394.0476295829976,stand,incorrect,2.6034670419976464,left,397.06359166699986,
stable,NA,stim_set/hard-vcom=2-45.png,397.0997407499999,398.69763583299937,fall,correct,1.6033470000002126,right,401.71359887499784,
stable,NA,stim_set/easy-vcom=1-73.png,401.7503946249999,404.20690679199834,stand,correct,2.467835457999172,left,407.2288224999975,
stable,NA,stim_set/easy-538.png,407.2694467919973,408.5826579579989,fall,correct,1.323522459002561,right,411.60355725000045,
unstable,stand,stim_set/easy-28.png,8.462777583001298,9.641928749999352,fall,correct,1.1837174590000359,right,12.658467124998424,
unstable,stand,stim_set/hard-555.png,12.702304708000156,13.684711375000916,stand,correct,0.9936117090001062,left,16.706652166998538,
unstable,stand,stim_set/hard-vcom=4-27.png,16.755472000000736,18.468633583001065,fall,correct,1.723881000001711,right,21.48988074999943,
unstable,stand,stim_set/hard-vcom=3-142.png,21.53791720799927,24.551473916999385,fall,incorrect,3.0246453330000804,right,27.57374854199952,
unstable,stand,stim_set/hard-280.png,27.621723625001323,28.660303749999002,stand,correct,1.0495876249988214,left,31.681441207998432,
unstable,stand,stim_set/hard-vcom=4-139.png,31.725350749999052,33.550003666998236,stand,correct,1.830293957998947,left,36.56656095799917,
unstable,stand,stim_set/easy-586.png,36.61242608300017,37.4919235419984,fall,correct,0.8852844159991946,right,40.50773091700103,
unstable,stand,stim_set/easy-542.png,40.5553867919989,41.46852341699923,fall,correct,0.9237762499978999,right,44.48948841699894,
unstable,stand,stim_set/easy-vcom=2-73.png,44.53242350000073,45.608575957998255,fall,correct,1.0811730839996017,right,48.624317249999876,
unstable,stand,stim_set/hard-vcom=1-92.png,48.67338308299804,49.525188874999,fall,correct,0.8575316249989555,right,52.541403332998016,
unstable,stand,stim_set/easy-411.png,52.589094124999974,53.47642037499827,fall,correct,0.8980980830019689,right,56.49780129200008,
unstable,stand,stim_set/hard-600.png,56.535586082998634,58.6682264580013,stand,correct,2.1438771249995625,left,61.689451750000444,
unstable,stand,stim_set/easy-164.png,61.737928833001206,63.12679745800051,fall,correct,1.3998173750005662,right,66.14765729200008,
unstable,stand,stim_set/hard-vcom=2-95.png,66.18506120799793,69.57713475000128,fall,incorrect,3.402841291997902,right,72.59810391700012,
unstable,stand,stim_set/easy-vcom=1-12.png,72.64589679200071,74.42519900000116,stand,correct,1.7843993329988734,left,77.44150195800103,
unstable,stand,stim_set/easy-318.png,77.487887416999,78.57705241700023,fall,correct,1.1000738330003514,right,81.59814770799858,
unstable,stand,stim_set/hard-vcom=4-147.png,81.64737391699964,83.40021387500019,stand,correct,1.758516083998984,left,86.41664516699893,
unstable,stand,stim_set/hard-14.png,86.45428712500143,88.20862616700106,fall,correct,1.7604226250005013,right,91.22503091700128,
unstable,stand,stim_set/hard-286.png,91.27323995799816,92.40020037499926,stand,correct,1.1327559170022141,left,95.41592200000014,
unstable,stand,stim_set/hard-vcom=4-22.png,95.46464941700106,97.61695041699932,fall,incorrect,2.1579359579991433,right,100.63248591699812,
unstable,stand,stim_set/hard-78.png,100.67852804200083,102.33349412499956,stand,correct,1.6607293329980166,left,105.34948687499855,
unstable,stand,stim_set/hard-vcom=4-88.png,105.3926066669992,107.44321841700003,stand,correct,2.0621069590015395,left,110.4651540829982,
unstable,stand,stim_set/easy-304.png,110.51110004200018,111.72713533299975,fall,incorrect,1.2268232499991427,right,114.74856975000148,
unstable,stand,stim_set/hard-440.png,114.79300570800115,115.91690320799898,fall,correct,1.1297388339989993,right,118.93337062499995,
unstable,stand,stim_set/hard-441.png,118.97574604200054,120.11019583300003,fall,correct,1.145343790998595,right,123.13110999999844,
stable,NA,stim_set/hard-vcom=3-82.png,146.53398162499798,148.30870266700003,stand,correct,1.7786579999992682,left,151.3242680830008,
stable,NA,stim_set/easy-vcom=3-121.png,151.3692958749998,152.691949707998,fall,correct,1.3287022080003226,right,155.70794433300034,
stable,NA,stim_set/easy-vcom=3-106.png,155.75066058299853,158.77517812500082,stand,correct,3.030673167002533,left,161.7911556250001,
stable,NA,stim_set/easy-8.png,161.83152691699797,162.63351608299854,fall,correct,0.8081038340023952,right,165.64954808299808,
stable,NA,stim_set/easy-233.png,165.69685170799858,166.8603914999985,fall,correct,1.1736292499990668,right,169.88137049999932,
stable,NA,stim_set/easy-vcom=1-87.png,169.9273406249995,171.93520266699852,fall,incorrect,2.01834104199952,right,174.9569618329988,
stable,NA,stim_set/easy-228.png,174.99332137500096,175.885616749998,fall,correct,0.9027215000023716,right,178.9065767079992,
stable,NA,stim_set/easy-239.png,178.95085724999808,181.13365633300054,fall,correct,2.1884492080025666,right,184.14940145799847,
stable,NA,stim_set/easy-344.png,184.19102979200034,185.01698045800003,fall,correct,0.8315819579984236,right,188.03858408299857,
stable,NA,stim_set/hard-vcom=4-132.png,188.07949920800093,189.22700733300007,fall,incorrect,1.1580912079989503,right,192.24794512500011,
stable,NA,stim_set/hard-vcom=3-143.png,192.2897750000011,195.05172329199922,fall,incorrect,2.772919250000996,right,198.07397770799798,
stable,NA,stim_set/easy-195.png,198.11618341699796,198.92681012499816,fall,correct,0.8218266670010053,right,201.94832479199977,
stable,NA,stim_set/hard-vcom=1-130.png,201.9903290830007,205.9253999169996,stand,correct,3.94084491600006,left,208.9419647499999,
stable,NA,stim_set/hard-vcom=3-145.png,208.97846016699987,212.36849804200028,stand,incorrect,3.400827166002273,left,215.38936304199888,
stable,NA,stim_set/hard-vcom=1-95.png,215.43159470799947,217.35867508299998,stand,correct,1.9328717500029597,left,220.37455666700043,
stable,NA,stim_set/hard-576.png,220.4107699999986,222.30872699999964,fall,incorrect,1.9036856669990811,right,225.32516575000045,
stable,NA,stim_set/hard-492.png,225.36965558299926,226.34196800000063,fall,incorrect,0.9785161250001693,right,229.35898974999873,
stable,NA,stim_set/easy-11.png,229.40154624999923,230.4837137079994,fall,correct,1.0882194580008218,right,233.50004691700087,
stable,NA,stim_set/hard-vcom=2-100.png,233.5432772919994,235.71714291700118,stand,correct,2.179783250001492,left,238.73391495800024,
stable,NA,stim_set/hard-599.png,238.77015883299828,240.29215945800024,stand,correct,1.5277598339998804,left,243.30820316699828,
stable,NA,stim_set/easy-122.png,243.35067562499898,245.9100744999996,fall,incorrect,2.5707072500008508,right,248.93213854200076,
stable,NA,stim_set/hard-369.png,248.96858050000083,251.6671382079985,fall,correct,2.704716083000676,right,254.68364474999908,
stable,NA,stim_set/hard-214.png,254.73017533299935,256.5089449170009,stand,correct,1.7847321250010282,left,259.52523637500053,
stable,NA,stim_set/hard-vcom=4-23.png,259.56823333300053,261.9519833330014,stand,correct,2.3948079159999907,left,264.9734614580011,
stable,NA,stim_set/hard-410.png,265.0197155419992,266.7421622080001,fall,correct,1.7282351249996282,right,269.75837845799833,
unstable,fall,stim_set/hard-vcom=4-27.png,280.95177695799794,282.81051679200027,fall,correct,1.8686174169997685,right,285.8318270419986,
unstable,fall,stim_set/easy-411.png,285.8781720420011,286.8605407499999,fall,correct,0.9930383749997418,right,289.88186245799807,
unstable,fall,stim_set/hard-440.png,289.92517379199853,291.0756642499982,fall,correct,1.1559670829992683,right,294.091499416998,
unstable,fall,stim_set/hard-vcom=4-88.png,294.1330148749985,295.1438473749986,stand,correct,1.0214930000001914,left,298.16535108300013,
unstable,fall,stim_set/easy-vcom=1-12.png,298.2112062499982,300.0839278329986,stand,correct,1.8776681250019465,left,303.09982987499825,
unstable,fall,stim_set/hard-555.png,303.14219666699864,304.9173239999982,stand,correct,1.7804802079990623,left,307.9327877079995,
unstable,fall,stim_set/hard-14.png,307.9688161669983,311.36845920799897,fall,correct,3.410353416998987,right,314.3900557499983,
unstable,fall,stim_set/hard-78.png,314.4346126669989,315.9190493749993,stand,correct,1.4948508749985194,left,318.94019941700026,
unstable,fall,stim_set/hard-441.png,318.98092537499906,320.5837697499992,fall,correct,1.6082087919967307,right,323.60001804200147,
unstable,fall,stim_set/easy-318.png,323.6447394169991,324.72717229200134,fall,correct,1.0930533329992613,right,327.74814412499836,
unstable,fall,stim_set/easy-542.png,327.79423804199905,328.98554991700075,fall,correct,1.20191554199846,right,332.0064025829997,
unstable,fall,stim_set/hard-vcom=2-95.png,332.0425633749983,335.6768290830005,fall,incorrect,3.645236832999217,right,338.6983752499982,
unstable,fall,stim_set/easy-164.png,338.74475600000005,339.92567466699984,fall,correct,1.1868309159981436,right,342.9418327079984,
unstable,fall,stim_set/easy-vcom=2-73.png,342.9829900420009,344.0696410419987,fall,correct,1.096710041998449,right,347.09021762499833,
unstable,fall,stim_set/hard-280.png,347.13673666699833,349.9108085830012,fall,incorrect,2.784604832999321,right,352.93182762500146,
unstable,fall,stim_set/easy-304.png,352.97595804199955,354.26058524999826,fall,incorrect,1.2955110420007259,right,357.2818994170011,
unstable,fall,stim_set/hard-vcom=4-22.png,357.32918549999886,360.0437721669987,stand,correct,2.72583533299985,left,363.0655167920013,
unstable,fall,stim_set/hard-vcom=3-142.png,363.1121172919993,368.01080029199875,stand,correct,4.909047458000714,left,371.0325472500008,
unstable,fall,stim_set/hard-vcom=4-139.png,371.07479579199935,372.8604717499984,stand,correct,1.7966179169998213,left,375.8817524170008,
unstable,fall,stim_set/hard-vcom=4-147.png,375.92865758300104,378.3193222919981,stand,correct,2.400877000000037,left,381.34049629199944,
unstable,fall,stim_set/easy-28.png,381.3850281669984,383.83402170800036,fall,correct,2.4543684579984983,right,386.8496710420004,
unstable,fall,stim_set/hard-600.png,386.88581975000125,389.3337850829994,stand,correct,2.4542252910032403,left,392.3501220830003,
unstable,fall,stim_set/easy-586.png,392.3946133749996,393.8924139999981,fall,correct,1.503167165999912,right,396.9086009999992,
unstable,fall,stim_set/hard-286.png,396.95588370800033,398.7589810419995,stand,correct,1.8094989159981196,left,401.77582037499815,
unstable,fall,stim_set/hard-vcom=1-92.png,401.82235474999834,403.3758005419986,fall,correct,1.5598704160001944,right,406.39234962499904,
unstable,stand,stim_set/hard-441.png,2.7106763330011745,4.043893541002035,fall,correct,1.3430845000002591,right,7.065109291001136,
unstable,stand,stim_set/easy-318.png,7.109686958003294,8.142214791001606,fall,correct,1.0377638329991896,right,11.157551750002312,
unstable,stand,stim_set/hard-vcom=3-142.png,11.204238708000048,13.73391220800113,stand,correct,2.534922708000522,left,16.750051416001952,
unstable,stand,stim_set/hard-555.png,16.792630208001356,18.002160208001442,stand,correct,1.2207477080009994,left,21.023169666001195,
unstable,stand,stim_set/hard-vcom=4-139.png,21.065548375001526,22.17723079100324,stand,correct,1.1220490830019116,left,25.19806645800054,
unstable,stand,stim_set/hard-286.png,25.24517987500076,26.352039041001262,stand,correct,1.1178235830011545,left,29.3732415830018,
unstable,stand,stim_set/hard-vcom=4-88.png,29.415079541002342,33.491908500000136,fall,incorrect,4.082466250001744,right,36.507702750001044,
unstable,stand,stim_set/hard-vcom=2-95.png,36.54383129100097,40.16717270800291,stand,correct,3.6290761660020507,left,43.18345654100267,
unstable,stand,stim_set/hard-vcom=4-22.png,43.23060316600095,46.608861500000785,stand,correct,3.384722167000291,left,49.62555187500038,
unstable,stand,stim_set/easy-vcom=1-12.png,49.671949333001976,52.100474083003064,stand,correct,2.4342159580010048,left,55.116383208001935,
unstable,stand,stim_set/hard-440.png,55.15899516600257,56.63400483300211,fall,correct,1.4803869999996095,right,59.64973012500195,
unstable,stand,stim_set/hard-14.png,59.68576975000178,61.952015000002575,fall,correct,2.2771900830011873,right,64.9736941250012,
unstable,stand,stim_set/hard-vcom=4-147.png,65.02105512500202,67.22564445800163,stand,correct,2.2103823750003357,left,70.24187433300176,
unstable,stand,stim_set/easy-411.png,70.28844916600065,71.91733900000327,fall,correct,1.6341197080000711,right,74.9329105830002,
unstable,stand,stim_set/hard-vcom=4-27.png,74.97976245800237,76.89373783300107,fall,correct,1.9251191250004922,right,79.91515833300218,
unstable,stand,stim_set/hard-600.png,79.9515351250011,82.25061112500043,stand,correct,2.304674500002875,left,85.26639383300062,
unstable,stand,stim_set/hard-78.png,85.31129937500009,87.35894912500225,stand,correct,2.053171042000031,left,90.3747327500023,
unstable,stand,stim_set/easy-164.png,90.42171195800256,91.78522479100138,fall,correct,1.374576750000415,right,94.80681741600347,
unstable,stand,stim_set/hard-vcom=1-92.png,94.8537822080034,96.09363816600307,fall,correct,1.2509157080021396,right,99.11548037500324,
unstable,stand,stim_set/easy-vcom=2-73.png,99.15708475000065,100.84222429100191,fall,correct,1.690488500000356,right,103.85791570800211,
unstable,stand,stim_set/hard-280.png,103.90408050000042,106.23393083300107,fall,incorrect,2.335900207999657,right,109.25043391600047,
unstable,stand,stim_set/easy-542.png,109.296169250003,110.70038716600175,fall,correct,1.4102511669989326,right,113.71666833300333,
unstable,stand,stim_set/easy-28.png,113.76131416600037,115.28370158300095,fall,correct,1.528622791000089,right,118.30056050000348,
unstable,stand,stim_set/easy-586.png,118.34517770800085,119.71715366600256,fall,correct,1.3779758749988105,right,122.73382283300089,
unstable,stand,stim_set/easy-304.png,122.77837966600055,125.76099416600118,fall,incorrect,2.9935332919994835,right,128.78204166600335,
stable,stand,stim_set/hard-vcom=2-100.png,151.93838633300038,153.65274958300142,stand,correct,1.7233277920022374,left,156.67367854100303,
stable,stand,stim_set/hard-vcom=4-132.png,156.7142816250016,158.11893741600215,fall,incorrect,1.415292458001204,right,161.13971558300182,
stable,stand,stim_set/easy-8.png,161.18049854100173,162.18412970800273,fall,correct,1.009247250000044,right,165.20053779100272,
stable,stand,stim_set/easy-122.png,165.2429309160034,166.54240500000014,fall,incorrect,1.3059382920000644,right,169.5589,
stable,stand,stim_set/hard-vcom=1-130.png,169.6006406660017,171.66009962500175,stand,correct,2.0712783749986556,left,174.68188162500155,
stable,stand,stim_set/easy-11.png,174.72417454100287,176.6089673330025,fall,correct,1.8906072909994691,right,179.62509529100134,
stable,stand,stim_set/hard-vcom=3-143.png,179.6669561250019,181.67554404100156,fall,incorrect,2.014490959001705,right,184.701524291002,
stable,stand,stim_set/hard-410.png,184.7478568330007,186.63570462500138,fall,correct,1.898285625000426,right,189.65655670800334,
stable,stand,stim_set/easy-344.png,189.697972416001,191.26049787500233,fall,correct,1.5735190829982457,right,194.28215587500017,
stable,stand,stim_set/easy-vcom=3-106.png,194.32480000000214,196.1091552910002,stand,correct,1.7900817080007982,left,199.12499166600173,
stable,stand,stim_set/hard-vcom=3-82.png,199.1698247500026,200.47749987500356,stand,correct,1.3183223749983881,left,203.4986138330023,
stable,stand,stim_set/easy-vcom=3-121.png,203.54347754100309,205.99443866600268,stand,incorrect,2.461537250001129,left,209.01525579100053,
stable,stand,stim_set/easy-239.png,209.0597211250024,211.05911204100266,fall,correct,2.0048261669981002,right,214.07541666600082,
stable,stand,stim_set/hard-492.png,214.1208668750005,216.67571175000194,stand,correct,2.5599514579989773,left,219.69175570800144,
stable,stand,stim_set/hard-vcom=3-145.png,219.7280982500015,223.35068112500085,fall,correct,3.6282464169999002,right,226.36687950000123,
stable,stand,stim_set/hard-vcom=4-23.png,226.40970429100344,227.79415937500016,stand,correct,1.3957275829998252,left,230.8154686250018,
stable,stand,stim_set/easy-195.png,230.85781520800083,232.08398500000112,fall,correct,1.2323605839992524,right,235.1004806250021,
stable,stand,stim_set/hard-214.png,235.14666550000038,236.9107018750001,stand,correct,1.774541541999497,left,239.93198220800332,
stable,stand,stim_set/easy-228.png,239.9683834580028,241.0674434160028,fall,correct,1.104948666998098,right,244.08364575000087,
stable,stand,stim_set/hard-599.png,244.11973095800204,246.5674235410006,stand,correct,2.4534478329987905,left,249.58337200000096,
stable,stand,stim_set/easy-vcom=1-87.png,249.62891395800034,252.3340938750007,fall,incorrect,2.710779791003006,right,255.34984883300058,
stable,stand,stim_set/hard-369.png,255.38617179100038,258.609117875003,fall,correct,3.2278877919998195,right,261.62474920800014,
stable,stand,stim_set/hard-vcom=1-95.png,261.6669178330012,264.8424544160007,stand,correct,3.1811680409991823,left,267.8581832500022,
stable,stand,stim_set/hard-576.png,267.89459375000297,270.2922415830035,stand,correct,2.403729082998325,left,273.308752500001,
stable,stand,stim_set/easy-233.png,273.3555759160008,274.8341455000009,fall,correct,1.4848540409984707,right,277.85047816600127,
unstable,fall,stim_set/hard-441.png,299.81645291600216,301.7690935000028,fall,correct,1.9625225419986236,right,304.79030395800146,
unstable,fall,stim_set/easy-304.png,304.8346505410009,306.5944185410008,fall,incorrect,1.7700990830016963,right,309.61581758300235,
unstable,fall,stim_set/hard-600.png,309.6521219580027,311.2855508330031,stand,correct,1.6447869590010669,left,314.30711758300095,
unstable,fall,stim_set/hard-14.png,314.34345495800153,316.7022908750005,stand,incorrect,2.3698472500000207,left,319.72332050000114,
unstable,fall,stim_set/hard-vcom=4-139.png,319.76523366600304,321.027980791001,stand,correct,1.2732711669996206,left,324.0492570000024,
unstable,fall,stim_set/hard-vcom=4-22.png,324.096193333,325.6676278750019,stand,correct,1.5773761659984302,left,328.68425950000164,
unstable,fall,stim_set/easy-542.png,328.73033233300157,330.9174165830009,fall,correct,2.1925960410007974,right,333.9331675830035,
unstable,fall,stim_set/easy-vcom=2-73.png,333.9748510000027,335.1509012080023,fall,correct,1.1814050419998239,right,338.1668454160026,
unstable,fall,stim_set/easy-28.png,338.21134933300345,339.2278041660029,fall,correct,1.026438374999998,right,342.24904216600044,
unstable,fall,stim_set/hard-vcom=4-147.png,342.29614012500315,343.56100941600016,stand,correct,1.275790625000809,left,346.58244654100054,
unstable,fall,stim_set/hard-vcom=2-95.png,346.6183860830024,348.4424038750003,stand,correct,1.8302964579997933,left,351.45885533300316,
unstable,fall,stim_set/hard-286.png,351.505682291001,353.7091884580004,stand,correct,2.2091901669991785,left,356.72504958300124,
unstable,fall,stim_set/hard-440.png,356.76775779100353,357.9526197080013,fall,correct,1.1955031659999804,right,360.97380504100147,
unstable,fall,stim_set/hard-vcom=4-88.png,361.01526133300285,363.7861525410008,stand,correct,2.7812132500002917,left,366.80730929100173,
unstable,fall,stim_set/easy-411.png,366.8539933750035,367.70925791600166,fall,correct,0.8612730419990839,right,370.7254560000001,
unstable,fall,stim_set/hard-78.png,370.769954708001,372.3676642080027,stand,correct,1.6030730830025277,left,375.38334683300127,
unstable,fall,stim_set/easy-586.png,375.4276190410019,377.125943416002,fall,correct,1.7037783330015372,right,380.14207033300045,
unstable,fall,stim_set/easy-164.png,380.1886504580034,381.6777084580026,fall,correct,1.4995455000025686,right,384.6984657500034,
unstable,fall,stim_set/easy-vcom=1-12.png,384.74443950000204,386.2857575830021,stand,correct,1.552216625001165,left,389.30708337500255,
unstable,fall,stim_set/hard-280.png,389.3530965000027,391.61093712500224,stand,correct,2.268586582998978,left,394.6324111250033,
unstable,fall,stim_set/hard-vcom=4-27.png,394.680607166003,396.7841889580013,fall,correct,2.1090838339987386,right,399.799748458001,
unstable,fall,stim_set/hard-vcom=1-92.png,399.84629516600035,401.3109027910032,fall,correct,1.4753461250002147,right,404.3319110000011,
unstable,fall,stim_set/easy-318.png,404.37673262500175,405.58595358300227,fall,correct,1.2201364590000594,right,408.60734466600115,
unstable,fall,stim_set/hard-vcom=3-142.png,408.65389600000344,410.57609483300257,fall,incorrect,1.9275082500025746,right,413.59188220800206,
unstable,fall,stim_set/hard-555.png,413.63419879100184,415.50950091600316,stand,correct,1.8809742909979832,left,418.5253702500013,
