batch_type,motivation,towers,trial_start,stim_on,choice,key,trial_end,acc,rt,score
stable,NA,stim_set/hard-410.png,2.718264208000619,7.729463333002059,NA,NA,13.253558374999557,,,213.0
stable,NA,stim_set/hard-vcom=3-143.png,13.29882804099907,16.352850708004553,stand,left,19.36945445799938,correct,3.0593538750035805,
stable,NA,stim_set/hard-369.png,19.407653916001436,23.29614237500209,stand,left,26.317746332999377,incorrect,3.8994319169942173,
stable,NA,stim_set/hard-vcom=4-132.png,26.360642625004402,29.98615108300146,stand,left,33.00231829100085,correct,3.6313363750014105,
stable,NA,stim_set/hard-vcom=2-100.png,33.047363500001666,35.604482540999015,stand,left,38.62620949999837,correct,2.568529167001543,
stable,NA,stim_set/easy-228.png,38.66449100000318,41.619584166001005,fall,right,44.63603941600013,correct,2.960984165998525,
stable,NA,stim_set/easy-vcom=3-121.png,44.68273245800083,49.18613066599937,fall,right,52.20285862500168,correct,4.509233665994543,
stable,NA,stim_set/hard-576.png,52.241568249999546,57.2042112909985,fall,right,60.22539658300229,incorrect,4.973373332999472,
stable,NA,stim_set/easy-vcom=1-87.png,60.27241787499952,65.27927725000336,NA,NA,69.51606424999773,,,
stable,NA,stim_set/easy-8.png,69.55903891599883,71.58634020799946,fall,right,74.6022150830031,correct,2.0331311660047504,
stable,NA,stim_set/hard-599.png,74.64006474999769,76.50456191600097,stand,left,79.5256164579987,correct,1.8756328329982352,
stable,NA,stim_set/hard-492.png,79.57119491600315,81.71111295800074,stand,left,84.72745262500393,correct,2.146116500000062,
stable,NA,stim_set/easy-11.png,84.7717047910046,86.27937037499942,fall,right,89.3010623750015,correct,1.518617957997776,
stable,NA,stim_set/hard-214.png,89.34916691599938,90.70288512499974,stand,left,93.71960804099945,correct,1.359694999999192,
stable,NA,stim_set/hard-vcom=1-130.png,93.76290454099944,96.61962470800063,fall,right,99.63568254100392,incorrect,2.862784292003198,
stable,NA,stim_set/easy-239.png,99.6819019579998,101.37128154100355,fall,right,104.39322595800331,correct,1.7004255000065314,
stable,NA,stim_set/easy-122.png,104.43791604100261,105.786336707999,fall,right,108.80215499999758,incorrect,1.3540851249999832,
stable,NA,stim_set/hard-vcom=3-145.png,108.83929599999828,111.06962983300036,stand,left,114.08866045800096,incorrect,2.2366055000020424,
stable,NA,stim_set/hard-vcom=1-95.png,114.13248600000225,117.88608804099931,stand,left,120.90332029099955,correct,3.7598074170018663,
stable,NA,stim_set/hard-vcom=4-23.png,120.94742958300048,124.11946833300317,stand,left,127.13637862500036,correct,3.1784663330035983,
stable,NA,stim_set/easy-233.png,127.1840925409997,128.97115245799796,fall,right,131.9923460830032,correct,1.7979162499977974,
stable,NA,stim_set/hard-vcom=3-82.png,132.03884541599837,133.53637025000353,stand,left,136.5555085829983,correct,1.503064042000915,
stable,NA,stim_set/easy-344.png,136.59897966599965,137.878114500003,fall,right,140.8942473749994,correct,1.2847655830046278,
stable,NA,stim_set/easy-195.png,140.9379112079987,142.911379707999,fall,right,145.92776075000438,correct,1.9795097500027623,
stable,NA,stim_set/easy-vcom=3-106.png,145.97136575000332,147.4300247909996,stand,left,150.45123937500466,correct,1.4692015830005403,
stable,fall,stim_set/easy-vcom=1-87.png,166.85535574999813,169.35315704099776,fall,right,172.36905187500088,incorrect,2.503151707998768,
stable,fall,stim_set/hard-vcom=3-145.png,172.40560187499796,175.01314266600093,stand,left,178.03435120799986,incorrect,2.6186966669993126,
stable,fall,stim_set/hard-vcom=4-23.png,178.07657699999982,180.3281332080005,stand,left,183.34413800000038,correct,2.2568134579996695,
stable,fall,stim_set/hard-vcom=1-95.png,183.38597579100315,187.6614129580048,stand,left,190.67779750000045,correct,4.281662624998717,
stable,fall,stim_set/easy-vcom=3-121.png,190.72279866600002,192.99484333299915,fall,right,196.01052320800227,correct,2.277686207999068,
stable,fall,stim_set/easy-233.png,196.0572133750029,197.7969464159978,fall,right,200.81765116599854,correct,1.749890332997893,
stable,fall,stim_set/easy-228.png,200.8535386250005,203.08664816599776,fall,right,206.1025455830022,correct,2.238588583000819,
stable,fall,stim_set/hard-492.png,206.14608204099932,208.86990162500297,stand,left,211.8864644580026,correct,2.7297041670026374,
stable,fall,stim_set/easy-11.png,211.92874375000247,213.87800541600154,fall,right,216.89467049999803,correct,1.9552174170021317,
stable,fall,stim_set/hard-vcom=2-100.png,216.93733333300042,218.19669637500192,stand,left,221.21839895800076,correct,1.270318041999417,
stable,fall,stim_set/hard-vcom=1-130.png,221.25999212500028,225.11142862500128,fall,right,228.12745333299972,incorrect,3.8571412910023355,
stable,fall,stim_set/easy-8.png,228.16794862499955,230.25320312500116,fall,right,233.26927816600073,correct,2.0907853329990758,
stable,fall,stim_set/easy-195.png,233.31121570800315,235.3716930829978,fall,right,238.39330750000227,correct,2.0718964590050746,
stable,fall,stim_set/hard-vcom=3-82.png,238.43827637500362,239.59650983299798,stand,left,242.61820879099832,correct,1.1691938329968252,
stable,fall,stim_set/easy-122.png,242.66047516599792,243.83659808299853,fall,right,246.85262375000457,incorrect,1.1819167909998214,
stable,fall,stim_set/hard-214.png,246.89865987499797,248.03803733300447,stand,left,251.0594633330038,correct,1.1502767499987385,
stable,fall,stim_set/hard-369.png,251.09591575000377,252.95508920800057,fall,right,255.97641641600057,correct,1.870088499999838,
stable,fall,stim_set/easy-344.png,256.0177837080046,258.6447132079993,fall,right,261.6609077079993,correct,2.632588417000079,
stable,fall,stim_set/hard-599.png,261.6966970830035,263.4949012500001,stand,left,266.5108023330031,correct,1.8038938750032685,
stable,fall,stim_set/hard-vcom=3-143.png,266.55251816599775,269.6877217500005,fall,right,272.70941508300166,incorrect,3.146622375003062,
stable,fall,stim_set/hard-410.png,272.75529108299816,274.9783129159987,stand,left,277.9948000830045,incorrect,2.2292699169993284,
stable,fall,stim_set/hard-vcom=4-132.png,278.0352531660028,281.4712415410031,fall,right,284.4931225830005,incorrect,3.447016291000182,
stable,fall,stim_set/easy-239.png,284.5372930829981,288.1966123750026,fall,right,291.21784441600175,correct,3.67003937499976,
stable,fall,stim_set/easy-vcom=3-106.png,291.25989862500137,292.4368247079983,stand,left,295.452985791002,correct,1.1826222079980653,
stable,fall,stim_set/hard-576.png,295.4891560410033,300.4964653749994,NA,NA,304.8848107080048,,,
unstable,fall,stim_set/hard-600.png,316.38308370800223,317.92849233299785,stand,left,320.94461299999966,correct,1.5509271249975427,
unstable,fall,stim_set/hard-vcom=4-147.png,320.99277129099937,322.23669470800087,stand,left,325.2532309160015,correct,1.2505123340015416,
unstable,fall,stim_set/hard-78.png,325.2993433330048,327.10338200000115,stand,left,330.1196142080007,correct,1.810070416999224,
unstable,fall,stim_set/easy-28.png,330.16561520800315,331.2299590410039,fall,right,334.2510906250027,correct,1.0744649580010446,
unstable,fall,stim_set/hard-vcom=1-92.png,334.29895945799944,335.7637119580031,fall,right,338.7843381249986,correct,1.4751073329971405,
unstable,fall,stim_set/hard-vcom=4-139.png,338.8285892080021,339.83821549999993,stand,left,342.86006616600207,correct,1.0203978749996168,
unstable,fall,stim_set/hard-vcom=4-27.png,342.90877029100375,345.7618331659978,stand,left,348.77755762499874,incorrect,2.8583090839965735,
unstable,fall,stim_set/hard-280.png,348.825326457998,351.28798858300433,fall,right,354.3092987909986,incorrect,2.4741082079999615,
unstable,fall,stim_set/easy-vcom=2-73.png,354.352284624998,358.35352933299873,fall,right,361.3691528749987,correct,4.006461167002271,
unstable,fall,stim_set/hard-286.png,361.41735999999946,362.88000654100324,stand,left,365.9012808749976,correct,1.4731742500007385,
unstable,fall,stim_set/hard-vcom=2-95.png,365.9385584160045,368.91185725000105,fall,right,371.92851850000443,incorrect,2.979285791996517,
unstable,fall,stim_set/hard-vcom=3-142.png,371.9764047080025,374.1534064160005,stand,left,377.16918483300105,correct,2.1823079170062556,
unstable,fall,stim_set/hard-14.png,377.2069800410027,379.1968366660003,stand,left,382.2182167080027,incorrect,2.001054833002854,
unstable,fall,stim_set/easy-318.png,382.2640262080022,384.3469370829989,fall,right,387.36822866600414,correct,2.09346779200132,
unstable,fall,stim_set/easy-411.png,387.4159899580045,392.413180208001,fall,right,395.43459829100175,correct,5.008359208004549,
unstable,fall,stim_set/easy-586.png,395.48083895799937,398.328476374998,fall,right,401.34441841600346,correct,2.8533084160008,
unstable,fall,stim_set/hard-440.png,401.38871591600036,403.34720395800105,fall,right,406.3674910000045,correct,1.9688210000022082,
unstable,fall,stim_set/easy-542.png,406.4142266659983,408.2619325830019,fall,right,411.2781516660034,correct,1.8534354579969659,
unstable,fall,stim_set/hard-vcom=4-88.png,411.320846583003,413.27990800000407,stand,left,416.30111549999856,correct,1.9704085830016993,
unstable,fall,stim_set/hard-441.png,416.34397691600316,420.7953199580006,stand,left,423.8116597910048,incorrect,4.4572558750005555,
unstable,fall,stim_set/easy-vcom=1-12.png,423.8591620830048,426.52193799999804,stand,left,429.5433982079994,correct,2.673662624998542,
unstable,fall,stim_set/hard-555.png,429.58682720800425,431.62168595800176,stand,left,434.6436908329997,correct,2.046202750003431,
unstable,fall,stim_set/easy-304.png,434.6893473750024,437.27158962500107,fall,right,440.2929650830047,incorrect,2.5932969999994384,
unstable,fall,stim_set/easy-164.png,440.3405225000024,442.9972977080033,fall,right,446.0182829999976,correct,2.6674865419990965,
unstable,fall,stim_set/hard-vcom=4-22.png,446.06670779100386,448.12039512499905,stand,left,451.13639383300324,correct,2.0594156669976655,
stable,stand,stim_set/hard-vcom=3-143.png,3.022940209004446,6.025865375006106,fall,right,9.042614084006345,incorrect,3.0094430839963024,
stable,stand,stim_set/hard-vcom=1-130.png,9.08452304200182,12.092762042004324,fall,right,15.108999250005581,incorrect,3.013960166994366,
stable,stand,stim_set/hard-369.png,15.145350375001726,17.66771308400348,fall,right,20.68389987500268,correct,2.5280547500005923,
stable,stand,stim_set/hard-599.png,20.720005000002857,22.217763500004367,stand,left,25.234772125004383,correct,1.5038134999995236,
stable,stand,stim_set/easy-8.png,25.275144834005914,26.751195417004055,fall,right,29.76751587500621,correct,1.4822686670013354,
stable,stand,stim_set/hard-214.png,29.813751375004358,31.16777704200649,stand,left,34.1836326670018,correct,1.3594578340052976,
stable,stand,stim_set/easy-344.png,34.224997292003536,35.90098575000593,fall,right,38.91730841700337,correct,1.6814537499958533,
stable,stand,stim_set/easy-vcom=3-121.png,38.96216145900689,41.78453075000289,stand,left,44.80038591700577,incorrect,2.8279974160031998,
stable,stand,stim_set/easy-239.png,44.84490308400564,46.52731470900471,fall,right,49.54928425000253,correct,1.6936466249972,
stable,stand,stim_set/hard-410.png,49.59509887500462,51.527915125006984,stand,left,54.5492321250058,incorrect,1.9433462919987505,
stable,stand,stim_set/hard-vcom=4-23.png,54.59181379200163,57.553143667006225,stand,left,60.573446542002785,correct,2.9714396670024144,
stable,stand,stim_set/easy-195.png,60.615448959004425,61.82603695900616,fall,right,64.84203350000462,correct,1.2160912499966798,
stable,stand,stim_set/easy-122.png,64.88437412500207,66.21928283400484,fall,right,69.24017033400014,incorrect,1.3456949590035947,
stable,stand,stim_set/easy-vcom=1-87.png,69.28552433400182,71.23449325000547,stand,left,74.25050945900148,correct,1.9543475000027684,
stable,stand,stim_set/easy-233.png,74.29728575000627,76.0507958340022,fall,right,79.06767345900153,correct,1.7594049589970382,
stable,stand,stim_set/hard-492.png,79.11152387500624,80.83430433400645,stand,left,83.85054575000686,correct,1.7285886660029064,
stable,stand,stim_set/hard-vcom=4-132.png,83.89100166700518,86.99248266700306,fall,right,90.00892333400407,incorrect,3.1075317909999285,
stable,stand,stim_set/hard-576.png,90.04528041700542,93.8780460840062,fall,right,96.89827537500241,incorrect,3.8429608329970506,
stable,stand,stim_set/hard-vcom=3-82.png,96.9428704170059,98.09271650000301,stand,left,101.10871191700426,correct,1.1554279169940855,
stable,stand,stim_set/hard-vcom=1-95.png,101.15061412500654,103.48611000000528,stand,left,106.50724650000484,correct,2.3460264160021325,
stable,stand,stim_set/easy-228.png,106.5436784170015,109.04286741700344,fall,right,112.05945212500228,correct,2.504922208005155,
stable,stand,stim_set/hard-vcom=3-145.png,112.09557433400187,114.57764941700589,stand,left,117.59860666700115,incorrect,2.49271262500406,
stable,stand,stim_set/easy-11.png,117.64083541700529,118.77748333400086,fall,right,121.79910866700084,correct,1.1474714590003714,
stable,stand,stim_set/hard-vcom=2-100.png,121.84220154200011,123.46776954200323,stand,left,126.48355383400485,correct,1.6305839580018073,
stable,stand,stim_set/easy-vcom=3-106.png,126.5255159590015,128.72604479200527,stand,left,131.74203116700664,correct,2.2061531670042314,
unstable,fall,stim_set/hard-78.png,151.04219995900348,153.30260249999992,fall,right,156.32356358400284,incorrect,2.271225584001513,
unstable,fall,stim_set/hard-vcom=4-88.png,156.36481083400577,159.24281012500433,stand,left,162.25845366700378,correct,2.8834438749981928,
unstable,fall,stim_set/hard-555.png,162.30058937500144,164.0257957089998,stand,left,167.04226741700404,correct,1.731406708000577,
unstable,fall,stim_set/easy-164.png,167.08879170900036,168.41753354200046,fall,right,171.43456275000062,correct,1.3354758339992259,
unstable,fall,stim_set/easy-304.png,171.4787165420057,173.75102612500632,fall,right,176.76680325000052,incorrect,2.277639749998343,
unstable,fall,stim_set/easy-542.png,176.8125312090051,178.74275395900622,fall,right,181.75887983400025,correct,1.9359947909979383,
unstable,fall,stim_set/hard-vcom=4-139.png,181.80127037500642,184.42583975000161,stand,left,187.4428396250005,correct,2.6308799589969567,
unstable,fall,stim_set/hard-vcom=2-95.png,187.47881916700135,188.52603700000327,stand,left,191.54213758400147,correct,1.0529750830028206,
unstable,fall,stim_set/hard-441.png,191.58238079200237,194.0427492500021,fall,right,197.05900916700193,correct,2.4656828329971177,
unstable,fall,stim_set/easy-318.png,197.10337412500667,198.63603062500624,fall,right,201.6571302920056,correct,1.5434942089996184,
unstable,fall,stim_set/hard-600.png,201.69355533400085,203.29271183400124,stand,left,206.30894712500594,correct,1.604555750003783,
unstable,fall,stim_set/hard-14.png,206.3447860840024,209.14272775000427,stand,left,212.15863929199986,incorrect,2.803460292001546,
unstable,fall,stim_set/hard-vcom=4-22.png,212.20554020900454,213.58425795900257,stand,left,216.6011049170047,correct,1.384830458999204,
unstable,fall,stim_set/hard-vcom=4-27.png,216.64789420900343,218.6611150000026,fall,right,221.68248195900378,correct,2.024046165999607,
unstable,fall,stim_set/easy-28.png,221.7267837920008,223.10102220900444,fall,right,226.11744170900056,correct,1.3801587080015452,
unstable,fall,stim_set/easy-586.png,226.16130200000043,227.5094931670028,fall,right,230.5257546250068,correct,1.3541314999965834,
unstable,fall,stim_set/easy-411.png,230.57200016700517,232.03595475000475,fall,right,235.0570030000017,correct,1.474966375004442,
unstable,fall,stim_set/easy-vcom=2-73.png,235.09806812500028,237.6610535840009,fall,right,240.68232479200378,correct,2.5739269580008113,
unstable,fall,stim_set/hard-vcom=4-147.png,240.72883625000395,242.010992334006,stand,left,245.03244445900054,correct,1.293253875002847,
unstable,fall,stim_set/hard-286.png,245.07966154200403,247.30948183400324,stand,left,250.32571058400208,correct,2.2355260840049596,
unstable,fall,stim_set/hard-vcom=3-142.png,250.3723331670044,252.80945145900478,stand,left,255.825257084005,correct,2.4425997080033994,
unstable,fall,stim_set/hard-vcom=1-92.png,255.87161375000142,258.72603858400544,fall,right,261.74185533400305,correct,2.860097707998648,
unstable,fall,stim_set/hard-280.png,261.78792945900204,265.15268779200414,fall,right,268.17376250000234,incorrect,3.3752421669996693,
unstable,fall,stim_set/easy-vcom=1-12.png,268.21960950000357,269.5678378750017,stand,left,272.58415216700087,correct,1.3545719160028966,
unstable,fall,stim_set/hard-440.png,272.62694800000463,274.80118170900096,fall,right,277.8169596250009,correct,2.179835250004544,
stable,NA,stim_set/easy-280.png,293.50407358400116,295.3861119170033,fall,right,298.4074830840036,correct,1.8931550839988631,
stable,NA,stim_set/easy-vcom=3-142.png,298.4539427500058,300.9761031250018,stand,left,303.9922953750065,correct,2.5280074999973294,
stable,NA,stim_set/easy-31.png,304.0381095420016,307.4174955000053,fall,right,310.4335766670047,incorrect,3.385477957999683,
stable,NA,stim_set/easy-20.png,310.47735620900494,312.4097297500048,fall,right,315.4252600000036,correct,1.9379924169988954,
stable,NA,stim_set/hard-40.png,315.47182533400337,316.67607775000215,stand,left,319.692091792007,correct,1.209973709002952,
stable,NA,stim_set/hard-vcom=4-45.png,319.7375690840054,322.86751041700336,fall,right,325.8838057500034,correct,3.136223792003875,
stable,NA,stim_set/hard-vcom=2-45.png,325.92119420900417,328.2360816670043,stand,left,331.25752062500396,incorrect,2.326336457997968,
stable,NA,stim_set/easy-590.png,331.3053515000065,332.9094745840048,fall,right,335.925234250004,correct,1.610236291999172,
stable,NA,stim_set/hard-vcom=1-3.png,335.96996683400357,337.84282670900575,stand,left,340.8587672089998,correct,1.87857191600051,
stable,NA,stim_set/hard-563.png,340.9073583750069,345.3595440420031,stand,left,348.37550712500524,correct,4.4585613750023185,
stable,NA,stim_set/hard-vcom=4-130.png,348.4196938340028,351.7777263750031,stand,left,354.7992793750018,incorrect,3.3691729590063915,
stable,NA,stim_set/hard-474.png,354.8428249170029,356.5278567500063,fall,right,359.5487647090049,correct,1.6956641669967212,
stable,NA,stim_set/easy-538.png,359.59115487500094,361.52777291700477,fall,right,364.549098209005,correct,1.9473888749998878,
stable,NA,stim_set/easy-vcom=4-69.png,364.59668770900316,367.16098708400386,stand,left,370.1826601250068,incorrect,2.5754872920006164,
stable,NA,stim_set/easy-vcom=3-125.png,370.2310865840045,374.66796891700506,fall,right,377.6842254170042,incorrect,4.442809457999829,
stable,NA,stim_set/easy-vcom=1-73.png,377.72204637500545,380.576260834001,stand,left,383.5931805420041,correct,2.860564124996017,
stable,NA,stim_set/hard-vcom=2-16.png,383.6414120000045,387.0027820000032,fall,right,390.02409608400194,incorrect,3.372112874996674,
stable,NA,stim_set/easy-63.png,390.06748975000664,391.7179780840015,fall,right,394.73425862500153,correct,1.6560287920001429,
stable,NA,stim_set/easy-vcom=4-126.png,394.7824120420046,399.5696472920026,fall,right,402.590492000003,correct,4.798075667000376,
stable,NA,stim_set/hard-367.png,402.63461995900434,405.40929158400104,stand,left,408.4261556670026,correct,2.780769707998843,
stable,NA,stim_set/easy-vcom=1-83.png,408.46362137500546,410.5529026670047,stand,left,413.57425166699977,correct,2.100505374997738,
stable,NA,stim_set/hard-451.png,413.6204573750001,416.44300033400214,fall,right,419.45879250000144,correct,2.827710333003779,
stable,NA,stim_set/hard-vcom=4-67.png,419.50304050000705,421.7762310840044,fall,right,424.79253350000363,correct,2.278927292005392,
stable,NA,stim_set/hard-570.png,424.84067887499987,426.1430097090051,stand,left,429.1589867920047,correct,1.3078254590000142,
stable,NA,stim_set/easy-vcom=2-3.png,429.2045891670059,431.7095239170012,stand,left,434.7261467920034,incorrect,2.510945249996439,
stable,stand,stim_set/hard-410.png,3.1465749999988475,5.39780391700333,stand,left,8.414003500001854,incorrect,2.256994333001785,
stable,stand,stim_set/hard-vcom=4-132.png,8.45487425000465,10.09083770900179,fall,right,13.112738125004398,incorrect,1.647711249999702,
stable,stand,stim_set/hard-vcom=3-145.png,13.149373625004955,15.856101541998214,fall,right,18.871540625004855,correct,2.7123388330001035,
stable,stand,stim_set/hard-vcom=3-143.png,18.913171833999513,21.089330792005057,fall,right,24.105887709003582,incorrect,2.1818257499980973,
stable,stand,stim_set/easy-11.png,24.148142917001678,25.67245387499861,fall,right,28.688703625004564,correct,1.530046374995436,
stable,stand,stim_set/easy-344.png,28.73038637499849,31.081083625002066,fall,right,34.097173750000366,correct,2.3563464999970165,
stable,stand,stim_set/hard-576.png,34.13377620900428,37.791126167001494,fall,right,40.81277295900509,incorrect,3.668672959000105,
stable,stand,stim_set/easy-195.png,40.85481224999967,42.24155537500337,fall,right,45.26197004200367,correct,1.3968216249995749,
stable,stand,stim_set/easy-122.png,45.30483108400222,47.98109037500399,fall,right,50.99707208399923,incorrect,2.68164658400201,
stable,stand,stim_set/hard-214.png,51.0435078340015,54.28249462500389,stand,left,57.304111584002385,correct,3.2500387500040233,
stable,stand,stim_set/easy-vcom=3-106.png,57.3461773750023,59.67268870900443,stand,left,62.68881966700428,correct,2.3323955000014394,
stable,stand,stim_set/hard-vcom=2-100.png,62.73175495900068,64.23103808399901,stand,left,67.24780970899883,correct,1.504907666996587,
stable,stand,stim_set/hard-vcom=1-95.png,67.29123433399945,71.29915258400433,stand,left,74.32080158399913,correct,4.019238667002355,
stable,stand,stim_set/hard-599.png,74.35676950000197,75.53084562499862,stand,left,78.54727195900341,correct,1.1795826249945094,
stable,stand,stim_set/easy-vcom=3-121.png,78.59187799999927,80.99929154200072,stand,left,84.02025566700468,incorrect,2.418086499994388,
stable,stand,stim_set/hard-vcom=4-23.png,84.06291862500075,87.22430979199999,stand,left,90.24526162500115,correct,3.1718455419977545,
stable,stand,stim_set/easy-233.png,90.29196120900451,91.88941233399964,fall,right,94.90627820900409,correct,1.6038521669979673,
stable,stand,stim_set/easy-228.png,94.9425621670016,96.19780941700446,fall,right,99.21416591700108,correct,1.2606302080021123,
stable,stand,stim_set/hard-369.png,99.25033475000237,101.54779933400278,fall,right,104.56379929200193,correct,2.302980000000389,
stable,stand,stim_set/easy-239.png,104.60788070900162,106.04957654199825,fall,right,109.07036066699948,correct,1.4524468329982483,
stable,stand,stim_set/hard-vcom=1-130.png,109.11185662500066,112.56434487500519,stand,left,115.58030458400026,correct,3.458116166999389,
stable,stand,stim_set/easy-vcom=1-87.png,115.62665554200066,119.14119049999863,fall,right,122.1625983749982,incorrect,3.5247697080048965,
stable,stand,stim_set/hard-vcom=3-82.png,122.20735637500184,123.45605266700295,stand,left,126.4726132920041,correct,1.2545953750013723,
stable,stand,stim_set/hard-492.png,126.51640608400339,128.66434841700539,stand,left,131.68069591699896,correct,2.1537832079993677,
stable,stand,stim_set/easy-8.png,131.72093616700295,133.23251962500217,fall,right,136.2547142090043,correct,1.5233347499961383,
stable,fall,stim_set/easy-122.png,153.6622151670017,156.18934416700358,fall,right,159.2055114169998,incorrect,2.5330938330007484,
stable,fall,stim_set/hard-369.png,159.2418647500017,162.9244290839997,stand,left,165.9454783750043,incorrect,3.69320841699664,
stable,fall,stim_set/hard-vcom=1-130.png,165.98695550000411,168.416331542001,fall,right,171.43725462500151,incorrect,2.4398354169970844,
stable,fall,stim_set/hard-vcom=3-143.png,171.47876683399954,173.15609929199854,fall,right,176.17240329200285,incorrect,1.683065124998393,
stable,fall,stim_set/hard-vcom=3-145.png,176.20851912500075,178.541118000001,fall,right,181.56244504200004,correct,2.3433612920052838,
stable,fall,stim_set/easy-344.png,181.6035472500007,183.7061833340049,fall,right,186.72192783400533,correct,2.108167999998841,
stable,fall,stim_set/easy-228.png,186.75782379200245,188.13086154199846,fall,right,191.1474374590034,correct,1.3789979170032893,
stable,fall,stim_set/easy-239.png,191.19155537500046,192.86435383400385,fall,right,195.88053904200206,correct,1.678879290993791,
stable,fall,stim_set/easy-vcom=1-87.png,195.9256859169982,198.61604425000405,fall,right,201.6372887500038,incorrect,2.701051333002397,
stable,fall,stim_set/hard-vcom=2-100.png,201.68002400000114,202.83103449999908,stand,left,205.84732233400428,correct,1.1566489589968114,
stable,fall,stim_set/hard-599.png,205.88319154200144,208.1561588340046,stand,left,211.17261783400318,correct,2.278532875003293,
stable,fall,stim_set/hard-410.png,211.21877508400212,212.57279004200245,stand,left,215.58908870899904,incorrect,1.3600110420011333,
stable,fall,stim_set/hard-vcom=4-132.png,215.62949225000193,218.39139158400212,fall,right,221.41315258399845,incorrect,2.7728763749983045,
stable,fall,stim_set/easy-195.png,221.4549159590024,222.89079820900224,fall,right,225.91230016700138,correct,1.4473213340024813,
stable,fall,stim_set/easy-vcom=3-121.png,225.95700729200325,227.96633750000183,fall,right,230.98768525000196,correct,2.0197829579992685,
stable,fall,stim_set/hard-492.png,231.03128729200398,232.71581554200384,stand,left,235.7379917090002,correct,1.6961387920018751,
stable,fall,stim_set/hard-vcom=3-82.png,235.78253312499874,236.874170916999,stand,left,239.89551512500475,correct,1.1025976250020904,
stable,fall,stim_set/hard-vcom=1-95.png,239.9370815000002,243.22281104200374,stand,left,246.2390461670002,correct,3.291381208997336,
stable,fall,stim_set/hard-214.png,246.28506566700526,247.8992108340026,stand,left,250.92083758400258,correct,1.6252177089991164,
stable,fall,stim_set/easy-11.png,250.96301562499866,252.83938987500005,fall,right,255.85519979200035,correct,1.8818630839959951,
stable,fall,stim_set/easy-8.png,255.89528970899846,257.57283091700083,fall,right,260.5894295840044,correct,1.6836927499971353,
stable,fall,stim_set/easy-vcom=3-106.png,260.6314252500015,262.389530542001,stand,left,265.4062625840015,correct,1.7641495839998242,
stable,fall,stim_set/easy-233.png,265.45253100000264,266.981100584002,fall,right,269.99653466699965,correct,1.5338933750026627,
stable,fall,stim_set/hard-576.png,270.03248179200455,273.8145279590026,fall,right,276.83020925000164,incorrect,3.787277458999597,
stable,fall,stim_set/hard-vcom=4-23.png,276.87276037500123,279.3978779590034,stand,left,282.41334279200237,correct,2.5305644999971264,
unstable,NA,stim_set/hard-439.png,296.48835570899973,299.2745342089984,fall,right,302.2959715840043,correct,2.7973652919972665,
unstable,NA,stim_set/hard-vcom=2-144.png,302.3339327920039,304.04137395900034,stand,left,307.0631102920015,incorrect,1.718079291000322,
unstable,NA,stim_set/easy-vcom=1-145.png,307.1090982090027,308.2145773750017,stand,left,311.2311217919996,correct,1.1116617079969728,
unstable,NA,stim_set/easy-121.png,311.2793822500025,313.7162525840031,fall,right,316.7377308750001,incorrect,2.4483979159995215,
unstable,NA,stim_set/hard-388.png,316.77643979200366,318.24123341700033,stand,left,321.2622178340025,correct,1.4753796250006417,
unstable,NA,stim_set/hard-552.png,321.3083403339988,324.1155907499997,stand,left,327.13800783400075,correct,2.818797125000856,
unstable,NA,stim_set/easy-vcom=4-19.png,327.18516758400074,330.01455091700336,fall,right,333.0310624170015,correct,2.8353234589958447,
unstable,NA,stim_set/easy-13.png,333.07938679200015,334.93133987500187,fall,right,337.94759666699974,correct,1.8578613749996293,
unstable,NA,stim_set/hard-82.png,337.9940729170048,339.9328539170019,fall,right,342.9540160000033,incorrect,1.9500418340030592,
unstable,NA,stim_set/hard-590.png,343.0002734590016,344.19978975000413,fall,right,347.2206732090053,correct,1.2099920839973493,
unstable,NA,stim_set/hard-442.png,347.26901550000184,350.04783316700195,fall,right,353.0640070840018,incorrect,2.784387500003504,
unstable,NA,stim_set/hard-345.png,353.1084130840027,355.0063486670042,fall,right,358.0220809590028,correct,1.903464040995459,
unstable,NA,stim_set/hard-vcom=1-5.png,358.06558187500195,360.3492277090045,fall,right,363.3703573340026,incorrect,2.2950733749967185,
unstable,NA,stim_set/hard-vcom=3-100.png,363.4140986670027,365.81457087500166,fall,right,368.83057437500247,correct,2.4065413329954026,
unstable,NA,stim_set/hard-371.png,368.8682884170048,372.1228092500023,stand,left,375.1394222090021,correct,3.2606811250007013,
unstable,NA,stim_set/hard-271.png,375.1868400000021,377.0247432920005,stand,left,380.0459276670008,correct,1.8485069169983035,
unstable,NA,stim_set/hard-21.png,380.08905824999965,382.98958812500496,fall,right,386.0055239170033,incorrect,2.906266957994376,
unstable,NA,stim_set/hard-382.png,386.04307741700177,388.7480687499992,fall,right,391.7638620840007,incorrect,2.7103078329964774,
unstable,NA,stim_set/easy-vcom=4-4.png,391.80732266700215,393.1812548750022,fall,right,396.1972194170012,correct,1.3797069169959286,
unstable,NA,stim_set/hard-2.png,396.24311104200024,400.49765283400484,fall,right,403.5144813750012,incorrect,4.2601687499991385,
unstable,NA,stim_set/hard-vcom=2-20.png,403.5623087499989,404.79093979200115,stand,left,407.812793709003,correct,1.2399799159975373,
unstable,NA,stim_set/hard-432.png,407.8603696670034,409.4496307090012,fall,right,412.4709637499982,correct,1.5998739579954417,
unstable,NA,stim_set/hard-556.png,412.5135998340047,415.3493371670047,stand,left,418.3711190000031,correct,2.8466952500020852,
unstable,NA,stim_set/easy-vcom=3-136.png,418.41245220899873,421.0646755839989,fall,right,424.081291167,incorrect,2.658628957993642,
unstable,NA,stim_set/easy-77.png,424.1249161250016,425.78312866700435,fall,right,428.8040456669987,correct,1.66891570900043,
unstable,NA,stim_set/easy-13.png,1.7331536659985431,4.53600791599456,fall,right,7.551934415998403,correct,2.80854449999606,
unstable,NA,stim_set/hard-556.png,7.593201290997968,9.229147250000096,fall,right,12.250564999994822,incorrect,1.6474027079966618,
unstable,NA,stim_set/hard-vcom=1-5.png,12.292474875001062,13.73608129099739,fall,right,16.75182387499808,incorrect,1.4490537919991766,
unstable,NA,stim_set/easy-vcom=4-19.png,16.79814429099497,18.437694957996428,stand,left,21.459757749995333,incorrect,1.6501954999985173,
unstable,NA,stim_set/easy-77.png,21.501884375000373,22.637762332997227,fall,right,25.65903516599792,correct,1.146463875003974,
unstable,NA,stim_set/hard-82.png,25.7038664579959,28.277725665997423,fall,right,31.293995874999382,incorrect,2.5797516249949695,
unstable,NA,stim_set/hard-590.png,31.33952904099715,34.11928508299752,fall,right,37.135239915995044,correct,2.785771750001004,
unstable,NA,stim_set/hard-432.png,37.18154287499783,38.385840415998246,fall,right,41.4025552499952,correct,1.210242459004803,
unstable,NA,stim_set/hard-2.png,41.447368000001006,44.07772183299676,fall,right,47.09320054099953,incorrect,2.6354342909980915,
unstable,NA,stim_set/hard-21.png,47.134553083000355,48.37978020800074,stand,left,51.401623999998264,correct,1.2562603750047856,
unstable,NA,stim_set/easy-vcom=1-145.png,51.44592674999876,52.6128238329984,stand,left,55.6340320829986,correct,1.1779125000030035,
unstable,NA,stim_set/hard-vcom=2-144.png,55.67042829099955,59.244462374997966,stand,left,62.26115833299991,incorrect,3.5800885829958133,
unstable,NA,stim_set/easy-vcom=4-4.png,62.30336858300143,64.96261958299874,stand,left,67.98376208300033,incorrect,2.670211165997898,
unstable,NA,stim_set/hard-271.png,68.0293136659966,72.07779437499994,stand,left,75.09395362500072,correct,4.05406879200018,
unstable,NA,stim_set/hard-388.png,75.13075329099956,76.64587920800113,stand,left,79.66776945799938,correct,1.5262404169989168,
unstable,NA,stim_set/hard-vcom=2-20.png,79.71420995800145,82.29450599999836,stand,left,85.31075645799865,correct,2.5857821659956244,
unstable,NA,stim_set/easy-vcom=3-136.png,85.35108875000151,88.75273229099548,fall,right,91.76860154099995,incorrect,3.4073316669964697,
unstable,NA,stim_set/hard-442.png,91.81508508299885,94.49448216599558,fall,right,97.51053983299789,incorrect,2.6850084170000628,
unstable,NA,stim_set/hard-vcom=3-100.png,97.5522728750002,99.16314237500046,fall,right,102.18442545799917,correct,1.6214119579963153,
unstable,NA,stim_set/hard-382.png,102.22056012499525,105.15475283299747,fall,right,108.17592820799473,incorrect,2.9448577080038376,
unstable,NA,stim_set/easy-121.png,108.2223955829977,109.66256962499756,fall,right,112.68373045799672,incorrect,1.4511779160020524,
unstable,NA,stim_set/hard-552.png,112.72851000000082,114.32187749999866,stand,left,117.34215704099915,correct,1.6035607090016128,
unstable,NA,stim_set/hard-371.png,117.37853883299977,119.36294433299918,fall,right,122.38421245799691,incorrect,1.9955220830015605,
unstable,NA,stim_set/hard-439.png,122.42681658299989,124.46273520799878,fall,right,127.48383170799934,correct,2.046683207998285,
unstable,NA,stim_set/hard-345.png,127.52615316599986,128.96259320799436,fall,right,131.9843347499991,correct,1.4473833329975605,
unstable,stand,stim_set/hard-14.png,147.03430741599732,149.50273216599453,stand,left,152.51955641599488,incorrect,2.4744094999987283,
unstable,stand,stim_set/easy-vcom=1-12.png,152.56582450000133,155.14444812500005,stand,left,158.16083612499642,correct,2.5849491250046412,
unstable,stand,stim_set/hard-440.png,158.20345874999475,159.62776491599652,fall,right,162.64417699999467,correct,1.4303206670010695,
unstable,stand,stim_set/hard-vcom=4-27.png,162.6911030830015,164.6194642499977,fall,right,167.6353767499968,correct,1.9340115830054856,
unstable,stand,stim_set/hard-280.png,167.68167287499818,169.13602491599886,fall,right,172.1522388749945,incorrect,1.4602899579986115,
unstable,stand,stim_set/easy-164.png,172.19872137499624,173.60275974999968,fall,right,176.61829029100045,correct,1.4095024160051253,
unstable,stand,stim_set/easy-411.png,176.6647500409963,178.4442304999975,fall,right,181.46058758299478,correct,1.7854535410006065,
unstable,stand,stim_set/hard-vcom=4-22.png,181.50720866600022,182.71095812499698,stand,left,185.72730362499715,correct,1.2096011250032461,
unstable,stand,stim_set/easy-vcom=2-73.png,185.76870708299975,187.2791508750015,fall,right,190.30145212500065,correct,1.5218633339973167,
unstable,stand,stim_set/hard-vcom=1-92.png,190.34843095799442,191.72794116599835,fall,right,194.7443387079984,correct,1.385612541998853,
unstable,stand,stim_set/easy-586.png,194.7885075410013,195.87101112499658,fall,right,198.89189804099442,correct,1.0929747090049204,
unstable,stand,stim_set/easy-28.png,198.93643699999666,200.0361950000006,fall,right,203.05249670799822,correct,1.1058301250013756,
unstable,stand,stim_set/hard-vcom=4-139.png,203.09463508299814,206.71250908300135,stand,left,209.7339882909946,correct,3.629658334000851,
unstable,stand,stim_set/hard-78.png,209.77851587499754,211.1362362910004,stand,left,214.15234912499727,correct,1.3640215839986922,
unstable,stand,stim_set/hard-441.png,214.19279362499947,217.15481845799513,fall,right,220.1755283329985,correct,2.972942125001282,
unstable,stand,stim_set/easy-318.png,220.220467207997,221.96952616599447,fall,right,224.98612624999805,correct,1.7546057500003371,
unstable,stand,stim_set/hard-286.png,225.03320566599723,226.71125991599547,stand,left,229.72718399999576,correct,1.6835002079969854,
unstable,stand,stim_set/easy-542.png,229.7761257079983,231.73795674999565,fall,right,234.75873145800142,correct,1.9721944999982952,
unstable,stand,stim_set/hard-vcom=4-147.png,234.80549770799553,237.33812487500109,stand,left,240.3591229579979,correct,2.5429114580038004,
unstable,stand,stim_set/hard-vcom=3-142.png,240.40556095799548,243.18770791599673,fall,right,246.2088107909949,incorrect,2.7931072089995723,
unstable,stand,stim_set/hard-600.png,246.24493666600029,247.81953466599953,stand,left,250.83526875000098,correct,1.5796681249994435,
unstable,stand,stim_set/easy-304.png,250.87990824999724,255.5380367079997,fall,right,258.55942429100105,incorrect,4.668969083002594,
unstable,stand,stim_set/hard-555.png,258.60196241599624,260.5277774579954,stand,left,263.54447729099775,correct,1.9321661249996396,
unstable,stand,stim_set/hard-vcom=2-95.png,263.58074737499555,266.4626267909989,fall,right,269.4839919160004,incorrect,2.8928137089969823,
unstable,stand,stim_set/hard-vcom=4-88.png,269.52532479100046,271.6779411249954,stand,left,274.6947965829968,correct,2.158835958005511,
unstable,stand,stim_set/hard-vcom=3-142.png,289.9174631249989,292.794540457995,fall,right,295.81053745799727,incorrect,2.882568207998702,
unstable,stand,stim_set/hard-14.png,295.8469021659985,298.61938883299445,fall,right,301.635550291001,correct,2.778684292003163,
unstable,stand,stim_set/hard-vcom=4-147.png,301.6820881659951,303.57150895799714,stand,left,306.59208241599845,correct,1.9002309999996214,
unstable,stand,stim_set/easy-vcom=2-73.png,306.63337529099954,308.34585624999454,fall,right,311.368020832997,correct,1.7239499999996042,
unstable,stand,stim_set/hard-vcom=1-92.png,311.41461933299433,312.7195767909943,fall,right,315.73579512500146,correct,1.3107558749979944,
unstable,stand,stim_set/easy-318.png,315.7803951659953,316.9945336249948,fall,right,320.01092866600084,correct,1.2202977499982808,
unstable,stand,stim_set/easy-28.png,320.0553914159973,321.12798537499475,fall,right,324.14420429099846,correct,1.0781077919964446,
unstable,stand,stim_set/easy-542.png,324.18997362499795,325.3029641249959,fall,right,328.3185347079998,correct,1.1183939580005244,
unstable,stand,stim_set/easy-411.png,328.3652828330014,329.3946624999953,fall,right,332.41047158299625,correct,1.035051625003689,
unstable,stand,stim_set/hard-vcom=2-95.png,332.4466730829954,334.57949883299443,stand,left,337.60098166600073,correct,2.1440480000019306,
unstable,stand,stim_set/easy-304.png,337.64495554099994,338.9194898749993,fall,right,341.9361564999999,incorrect,1.2807365830012714,
unstable,stand,stim_set/hard-555.png,341.97853983299865,343.1029720000006,stand,left,346.1188628329983,correct,1.1302215410032659,
unstable,stand,stim_set/hard-vcom=4-88.png,346.160273290996,350.1463067500008,fall,right,353.1675350000005,incorrect,3.9969312499961234,
unstable,stand,stim_set/easy-586.png,353.21198024999467,354.22087495799497,fall,right,357.2428216249973,correct,1.019935374999477,
unstable,stand,stim_set/hard-78.png,357.28749774999596,360.04433725000126,stand,left,363.06112491599924,correct,2.762892416001705,
unstable,stand,stim_set/hard-vcom=4-27.png,363.1082229579988,365.34605208299763,fall,right,368.36721874999785,correct,2.248984666002798,
unstable,stand,stim_set/easy-164.png,368.41392241599533,369.4711755409953,fall,right,372.4928361249986,correct,1.0681058750051307,
unstable,stand,stim_set/easy-vcom=1-12.png,372.538664832995,373.74602358300035,stand,left,376.76743287499994,correct,1.218245250005566,
unstable,stand,stim_set/hard-600.png,376.80365404099575,377.93797204099974,stand,left,380.95931137500156,correct,1.1452512079995358,
unstable,stand,stim_set/hard-vcom=4-22.png,381.00604441599717,382.43609674999607,stand,left,385.45289333300025,correct,1.4362206250007148,
unstable,stand,stim_set/hard-vcom=4-139.png,385.4948692909966,388.6196962909962,fall,right,391.6357490829978,incorrect,3.130551916001423,
unstable,stand,stim_set/hard-286.png,391.6829375829984,393.38628400000016,fall,right,396.4023830410006,incorrect,1.7087896249940968,
unstable,stand,stim_set/hard-280.png,396.44866795800044,397.86261374999594,fall,right,400.8845000000001,incorrect,1.4252089169967803,
unstable,stand,stim_set/hard-440.png,400.9274315829971,402.3632771249977,fall,right,405.38375337499747,correct,1.4461112920034793,
unstable,stand,stim_set/hard-441.png,405.4243548749946,407.1627719159951,fall,right,410.1838017909977,correct,1.7492959589944803,
