batch_type,motivation,towers,trial_start,stim_on,choice,acc,rt,key,trial_end,score
stable,fall,stim_set/easy-228.png,8.012025916999846,12.966275625003618,fall,correct,4.962547374998394,right,15.989288709002722,229.0
stable,fall,stim_set/easy-8.png,16.03318600000057,18.50612962499872,fall,correct,2.47868537499744,right,21.522340167000948,
stable,fall,stim_set/hard-599.png,21.560280792000412,24.049474999999802,stand,correct,2.5001144999987446,left,27.07061029200122,
stable,fall,stim_set/hard-vcom=3-82.png,27.117044709004404,28.839635249998537,stand,correct,1.7280388750004931,left,31.85546625000279,
stable,fall,stim_set/easy-239.png,31.901526667003054,36.48123320900049,fall,correct,4.585419333001482,right,39.497504999999364,
stable,fall,stim_set/hard-vcom=1-95.png,39.541223583997635,41.43965554200258,stand,correct,1.9041569580003852,left,44.45600187499804,
stable,fall,stim_set/hard-576.png,44.49354945900268,46.02255712499755,stand,correct,1.5354535829974338,left,49.038983124999504,
stable,fall,stim_set/hard-vcom=4-132.png,49.08120291699743,52.106269625001005,fall,incorrect,3.0310297909963992,right,55.12227554200217,
stable,fall,stim_set/easy-vcom=1-87.png,55.169487500003015,57.033100459004345,stand,correct,1.8746284169974388,left,60.05378054200264,
stable,fall,stim_set/easy-233.png,60.10109258400189,63.42293216699909,fall,correct,3.3281400419946294,right,66.43941420900228,
stable,fall,stim_set/hard-vcom=2-100.png,66.48369600000296,67.98116141700302,stand,correct,1.5035035830005654,left,70.99830529199971,
stable,fall,stim_set/hard-369.png,71.03600725000433,75.33965595900372,stand,incorrect,4.308554707997246,left,78.35525462499936,
stable,fall,stim_set/easy-195.png,78.39884779199929,81.60795987500023,fall,correct,3.2198300839954754,right,84.62888662500336,
stable,fall,stim_set/easy-122.png,84.67323679199762,86.47293654199893,fall,incorrect,1.8054417909952463,right,89.48891645899857,
stable,fall,stim_set/hard-vcom=1-130.png,89.53208129200357,91.21469562499988,stand,correct,1.6887127500012866,left,94.23133016700012,
stable,fall,stim_set/hard-214.png,94.27982716700353,95.41638454200438,stand,correct,1.147364500000549,left,98.43799491700338,
stable,fall,stim_set/easy-vcom=3-106.png,98.48220395899989,99.5913374169977,stand,correct,1.1198772080024355,left,102.6134537090038,
stable,fall,stim_set/easy-vcom=3-121.png,102.65947291700286,105.58967979199952,stand,incorrect,2.935718833003193,left,108.60562104199926,
stable,fall,stim_set/easy-344.png,108.64862754200294,112.82475833399803,stand,incorrect,4.1867570000031264,left,115.84577787500166,
stable,fall,stim_set/hard-vcom=3-145.png,115.88375012500182,117.55632220899861,stand,incorrect,1.6781179590034299,left,120.57240499999898,
stable,fall,stim_set/hard-492.png,120.61830829200335,122.27294741699734,stand,correct,1.660175208999135,left,125.28923870900326,
stable,fall,stim_set/easy-11.png,125.33309208400169,127.95620487500128,fall,correct,2.6288272500023595,right,130.97187466700416,
stable,fall,stim_set/hard-vcom=4-23.png,131.01630887499778,133.6497139589992,stand,correct,2.6438085840054555,left,136.67088533400238,
stable,fall,stim_set/hard-vcom=3-143.png,136.71407712499786,139.8832408340022,stand,correct,3.180234625004232,left,142.9048391250035,
stable,fall,stim_set/hard-410.png,142.9524265,144.98149566700158,stand,incorrect,2.0344457920000423,left,147.99698350000108,
unstable,NA,stim_set/hard-14.png,162.93388587499794,165.6314585,stand,incorrect,2.702031375003571,left,168.64773716700438,
unstable,NA,stim_set/easy-542.png,168.69511616700038,173.69962700000178,NA,,,NA,178.0987517090034,
unstable,NA,stim_set/hard-vcom=3-142.png,178.14706362500146,179.73263033400144,stand,correct,1.5970545419986593,left,182.7543984590011,
unstable,NA,stim_set/hard-280.png,182.80283895900357,183.71636350000335,stand,correct,0.9242215420017601,left,186.73751741700107,
unstable,NA,stim_set/hard-vcom=4-139.png,186.78149145899806,187.60643891699874,stand,correct,0.8303951250054524,left,190.62224674999743,
unstable,NA,stim_set/easy-vcom=2-73.png,190.66498462500022,193.58957687499787,fall,correct,2.930765832999896,right,196.60646754199843,
unstable,NA,stim_set/easy-586.png,196.65248625000095,199.49211316699802,fall,correct,2.849694084005023,right,202.51257158400404,
unstable,NA,stim_set/easy-28.png,202.5589162920005,204.73167695900338,fall,correct,2.178694333000749,right,207.74867675000132,
unstable,NA,stim_set/easy-304.png,207.79465241700382,209.54838966699754,stand,correct,1.7593184170036693,left,212.56467941700248,
unstable,NA,stim_set/easy-411.png,212.61243179200392,215.69985799999995,fall,correct,3.097823292002431,right,218.7208482499991,
unstable,NA,stim_set/hard-vcom=4-147.png,218.76961120899796,219.85847279200243,stand,correct,1.099570083002618,left,222.87943908399757,
unstable,NA,stim_set/hard-286.png,222.9276986670011,224.23161899999832,stand,correct,1.3089262499997858,left,227.24743175000185,
unstable,NA,stim_set/easy-vcom=1-12.png,227.29495291700005,228.55849508399842,stand,correct,1.2743827499944018,left,231.58035466699948,
unstable,NA,stim_set/hard-vcom=4-88.png,231.62397016699833,233.45009712500178,stand,correct,1.8367204590031179,left,236.47080762500264,
unstable,NA,stim_set/easy-164.png,236.5188161670012,238.63324087500223,stand,incorrect,2.1253109999961453,left,241.6542813749984,
unstable,NA,stim_set/hard-vcom=2-95.png,241.69179050000093,243.03336833399953,stand,correct,1.3527521670039278,left,246.05454637500225,
unstable,NA,stim_set/easy-318.png,246.10097287499957,247.38297562499793,fall,correct,1.2929419579959358,right,250.40427966700372,
unstable,NA,stim_set/hard-441.png,250.44709408400377,253.39819129199896,stand,incorrect,2.956608332999167,left,256.4142119590033,
unstable,NA,stim_set/hard-600.png,256.4523357500002,257.4668853750045,stand,correct,1.025061749998713,left,260.4882943749981,
unstable,NA,stim_set/hard-vcom=1-92.png,260.5374113750004,261.71499079200294,fall,correct,1.1832781250050175,right,264.73107091699785,
unstable,NA,stim_set/hard-vcom=4-27.png,264.77916258400364,266.8163947089997,stand,incorrect,2.04878699999972,left,269.83788079200167,
unstable,NA,stim_set/hard-vcom=4-22.png,269.88640887499787,271.2498938339995,stand,correct,1.374791959002323,left,274.27118079199863,
unstable,NA,stim_set/hard-555.png,274.31548404200294,275.3149537089994,stand,correct,1.005593374997261,left,278.3320598749997,
unstable,NA,stim_set/hard-440.png,278.37593887500407,280.8983822500013,fall,correct,2.5283071660014684,right,283.9148404169973,
unstable,NA,stim_set/hard-78.png,283.9607567089988,284.9999825420018,stand,correct,1.0496616250020452,left,288.0212021250045,
stable,NA,stim_set/hard-vcom=4-130.png,301.7641079169989,303.4746109589978,stand,incorrect,1.7207309169971268,left,306.4962964170045,
stable,NA,stim_set/easy-63.png,306.53992829200433,308.4984976670021,fall,correct,1.9647140000015497,right,311.5144679590012,
stable,NA,stim_set/hard-vcom=1-3.png,311.5592094169988,312.50672770899837,stand,correct,0.9533792500005802,left,315.52263287499954,
stable,NA,stim_set/easy-vcom=4-126.png,315.57101429199975,318.93335416699847,stand,incorrect,3.3733712079992983,left,321.9546450839989,
stable,NA,stim_set/hard-563.png,322.0036242499991,323.931949292004,stand,correct,1.9340439999941736,left,326.94804570900305,
stable,NA,stim_set/easy-vcom=2-3.png,326.99378587499814,329.273434499999,stand,incorrect,2.2855991670003277,left,332.28995416699763,
stable,NA,stim_set/hard-367.png,332.3343927090027,333.7817554170033,stand,correct,1.4535142079985235,left,336.7978068750017,
stable,NA,stim_set/easy-vcom=4-69.png,336.84519491699757,340.0982667920034,stand,incorrect,3.2595192910011974,left,343.1152000840011,
stable,NA,stim_set/easy-vcom=3-125.png,343.16394270899764,346.040170166998,stand,correct,2.8824004589987453,left,349.05622562499775,
stable,NA,stim_set/easy-590.png,349.1044947920018,351.33993533399916,fall,correct,2.241481625002052,right,354.35657333400013,
stable,NA,stim_set/easy-vcom=1-83.png,354.3939532919976,356.3235709590008,stand,correct,1.9352244160036207,left,359.33939466700394,
stable,NA,stim_set/hard-vcom=4-67.png,359.3834049590005,362.956894834002,fall,correct,3.5789784170046914,right,365.9728718749975,
stable,NA,stim_set/easy-31.png,366.0181604169993,368.9999406670031,fall,incorrect,2.9929289589999826,right,372.0213159999985,
stable,NA,stim_set/hard-vcom=2-45.png,372.0590396250045,373.63186004199815,stand,incorrect,1.5782541669977945,left,376.64742062499863,
stable,NA,stim_set/hard-vcom=2-16.png,376.69556345899764,380.283745875,stand,correct,3.599129666996305,left,383.3056957500012,
stable,NA,stim_set/easy-280.png,383.34949870900164,384.97346587500215,fall,correct,1.6296873749961378,right,387.9895618340015,
stable,NA,stim_set/hard-451.png,388.03610050000134,390.890239291999,stand,incorrect,2.8606510409954353,left,393.9069011669999,
stable,NA,stim_set/hard-474.png,393.9504518340036,395.383580583999,fall,correct,1.4441818339983001,right,398.40487433400267,
stable,NA,stim_set/hard-40.png,398.45142745900375,401.9986727920041,stand,correct,3.5519032500014873,left,405.0143579170035,
stable,NA,stim_set/hard-vcom=4-45.png,405.0599844590033,406.9068844170033,stand,incorrect,1.85275924999587,left,409.92307150000124,
stable,NA,stim_set/easy-vcom=3-142.png,409.96904670900403,411.60832541700074,stand,correct,1.6499717500046245,left,414.6296866249977,
stable,NA,stim_set/easy-vcom=1-73.png,414.66712754200125,416.09871104200283,stand,correct,1.4374109999989741,left,419.1148100420032,
stable,NA,stim_set/easy-20.png,419.1585197500026,420.70697591700446,fall,correct,1.5540434169961372,right,423.72270474999823,
stable,NA,stim_set/easy-538.png,423.7653031250011,425.1901926249993,fall,correct,1.4305645409986028,right,428.2062520000036,
stable,NA,stim_set/hard-570.png,428.2543373340013,429.3169567500008,stand,correct,1.073340166003618,left,432.3385484590035,
unstable,stand,stim_set/hard-286.png,5.331659749994287,8.167631457996322,stand,correct,2.845860707995598,left,11.189106207995792,
unstable,stand,stim_set/easy-411.png,11.235413999995217,13.265766624994285,fall,correct,2.035748540998611,right,16.282180832997255,
unstable,stand,stim_set/hard-vcom=1-92.png,16.32901533299446,18.332800999996834,fall,correct,2.00892416699935,right,21.349076332997356,
unstable,stand,stim_set/hard-14.png,21.385263999996823,23.282643541999278,stand,incorrect,1.9028777079947758,left,26.298737832999905,
unstable,stand,stim_set/hard-280.png,26.34458279199316,28.124201457998424,stand,correct,1.7850671669948497,left,31.140038416997413,
unstable,stand,stim_set/hard-vcom=4-139.png,31.18247816699295,32.21774620799988,stand,correct,1.04595804100245,left,35.2389744999964,
unstable,stand,stim_set/hard-vcom=4-88.png,35.28025233299559,36.257641624993994,stand,correct,0.9833280419989023,left,39.27371766699798,
unstable,stand,stim_set/hard-600.png,39.309948082998744,40.540971999995236,stand,correct,1.2365462919988204,left,43.55688279199967,
unstable,stand,stim_set/hard-vcom=3-142.png,43.60328320799454,45.83251624999684,stand,correct,2.2350710000027902,left,48.84901445799915,
unstable,stand,stim_set/easy-vcom=1-12.png,48.8950520829967,50.74902174999443,stand,correct,1.8598094169938122,left,53.765055749994644,
unstable,stand,stim_set/hard-vcom=4-22.png,53.81191379199299,54.7511843329994,stand,correct,0.9499402079964057,left,57.77161120799428,
unstable,stand,stim_set/easy-28.png,57.816309457994066,58.88444112499565,fall,correct,1.0786618339989218,right,61.90523558299901,
unstable,stand,stim_set/easy-586.png,61.94943241699366,63.184644707995176,fall,correct,1.2449428339969018,right,66.20531316699635,
unstable,stand,stim_set/easy-vcom=2-73.png,66.24665824999829,67.8589605829984,fall,correct,1.623243124995497,right,70.88048374999926,
unstable,stand,stim_set/easy-318.png,70.92492404199584,72.0587031249961,fall,correct,1.145083875002456,right,75.08043329199427,
unstable,stand,stim_set/hard-vcom=2-95.png,75.11671341699548,76.8656978749932,stand,correct,1.7548327499971492,left,79.88256595799612,
unstable,stand,stim_set/hard-555.png,79.92503162499634,81.5345212079992,stand,correct,1.6200783750027767,left,84.55562674999965,
unstable,stand,stim_set/easy-164.png,84.60210416699556,86.74923774999479,fall,correct,2.1529680410021683,right,89.76569841699529,
unstable,stand,stim_set/hard-vcom=4-147.png,89.81255062499986,91.19093708299624,stand,correct,1.3842230000009295,left,94.20733524999378,
unstable,stand,stim_set/hard-440.png,94.24985412499518,95.62439787499898,fall,correct,1.3802460829974734,right,98.64026145800017,
unstable,stand,stim_set/hard-vcom=4-27.png,98.68735508299869,103.6993685829948,NA,,,NA,107.98479524999857,
unstable,stand,stim_set/easy-542.png,108.03078808299324,110.05771270799596,fall,correct,2.032183374998567,right,113.0737549169935,
unstable,stand,stim_set/hard-441.png,113.11412420799752,114.99924016699515,stand,incorrect,1.8907588750007562,left,118.0154932499936,
unstable,stand,stim_set/hard-78.png,118.05981274999795,119.48243187499611,stand,correct,1.4286052090028534,left,122.49859116699372,
unstable,stand,stim_set/easy-304.png,122.54271891699318,124.1011940419994,fall,incorrect,1.5687969159989734,right,127.1220555829932,
unstable,NA,stim_set/hard-600.png,142.032986582999,143.3994152499945,stand,correct,1.3716095000054338,left,146.41575545799424,
unstable,NA,stim_set/easy-vcom=2-73.png,146.45727995799825,149.23269587499817,fall,correct,2.7818100830045296,right,152.24956974999805,
unstable,NA,stim_set/hard-vcom=4-22.png,152.29624408299424,153.50947616699705,stand,correct,1.2240395420012646,left,156.53065212499496,
unstable,NA,stim_set/hard-555.png,156.5731565419992,157.4326875419938,stand,correct,0.8653112079991843,left,160.44917979199818,
unstable,NA,stim_set/easy-542.png,160.49506695799937,161.57442008299404,fall,correct,1.0846718340035295,right,164.59052120799606,
unstable,NA,stim_set/easy-vcom=1-12.png,164.6364762919984,166.05074662499828,stand,correct,1.4258129579975503,left,169.07207462499355,
unstable,NA,stim_set/hard-440.png,169.11463033299515,170.54099974999554,fall,correct,1.4321337080036756,right,173.55707566699857,
unstable,NA,stim_set/hard-78.png,173.60180374999618,174.5843619169973,stand,correct,0.9936425419946318,left,177.60585870799696,
unstable,NA,stim_set/hard-14.png,177.64198579199729,179.21594858299795,stand,incorrect,1.5793770410018624,left,182.23226341699774,
unstable,NA,stim_set/hard-vcom=4-27.png,182.27922070799832,184.10771262499475,fall,correct,1.8341196250039502,right,187.12343095799588,
unstable,NA,stim_set/hard-vcom=4-147.png,187.17085108299943,188.19916804199602,stand,correct,1.0347638330058544,left,191.21636479199515,
unstable,NA,stim_set/easy-304.png,191.26059449999593,193.23271720799676,fall,incorrect,1.977703290998761,right,196.24924566699337,
unstable,NA,stim_set/easy-318.png,196.29406512499554,197.60946812499606,fall,correct,1.3259966670011636,right,200.63053549999313,
unstable,NA,stim_set/hard-vcom=1-92.png,200.67812258299818,201.80768195799465,fall,correct,1.1352667920000385,right,204.82421770799556,
unstable,NA,stim_set/hard-vcom=4-139.png,204.86631166699954,205.79096095799468,stand,correct,0.9306576669987408,left,208.80729670799337,
unstable,NA,stim_set/hard-280.png,208.85337020799489,210.41598954199435,stand,correct,1.5682870419987012,left,213.4321982919937,
unstable,NA,stim_set/easy-28.png,213.47658991699427,214.70774333299778,fall,correct,1.2371794579958078,right,217.72394033299497,
unstable,NA,stim_set/hard-vcom=3-142.png,217.7707717919984,219.1928007499955,stand,correct,1.433169125004497,left,222.21447016699676,
unstable,NA,stim_set/hard-vcom=2-95.png,222.2505140419962,224.29946616699453,stand,correct,2.0543302910009515,left,227.31560770799842,
unstable,NA,stim_set/hard-vcom=4-88.png,227.35699279199616,228.31765408299543,stand,correct,0.971569166998961,left,231.33877187499456,
unstable,NA,stim_set/easy-411.png,231.38531458299985,232.79098745800002,fall,correct,1.4113431250007125,right,235.80677374999505,
unstable,NA,stim_set/hard-286.png,235.85377141699428,236.96762170799775,stand,correct,1.1249804580002092,left,239.98873529199773,
unstable,NA,stim_set/hard-441.png,240.0294933329933,242.10784729199804,stand,incorrect,2.0839120840028045,left,245.12359349999315,
unstable,NA,stim_set/easy-586.png,245.1678029579998,247.75965079199523,fall,correct,2.602706666002632,right,250.78084791699803,
unstable,NA,stim_set/easy-164.png,250.82745849999628,252.03269379199628,fall,correct,1.2109200839986443,right,255.04847279199748,
stable,fall,stim_set/easy-280.png,267.01591033299337,268.543023249993,fall,correct,1.5367877910030074,right,271.5641641669936,
stable,fall,stim_set/hard-vcom=4-130.png,271.6073704579976,273.14246241699584,stand,incorrect,1.546269584003312,left,276.16383145799773,
stable,fall,stim_set/easy-vcom=3-125.png,276.21044124999753,277.6426529579985,fall,incorrect,1.4432167080012732,right,280.6639294169945,
stable,fall,stim_set/easy-538.png,280.70443108299514,282.0074988329943,fall,correct,1.3090974170045229,right,285.02379124999425,
stable,fall,stim_set/hard-vcom=4-67.png,285.0663710419976,287.1760980419931,fall,correct,2.119985750003252,right,290.1969189999945,
stable,fall,stim_set/hard-vcom=2-16.png,290.24350091699307,291.47607108299417,stand,correct,1.2435534579999512,left,294.4975277919948,
stable,fall,stim_set/hard-vcom=1-3.png,294.54177654199884,295.3159964169972,stand,correct,0.7805274999991525,left,298.332969916999,
stable,fall,stim_set/hard-563.png,298.3807674169948,300.75788762499724,stand,correct,2.382310333996429,left,303.77315508299944,
stable,fall,stim_set/easy-vcom=4-69.png,303.81968474999303,306.67447345799883,stand,incorrect,2.8606775420048507,left,309.69057362499734,
stable,fall,stim_set/easy-vcom=2-3.png,309.7360023749934,311.2756577919936,stand,incorrect,1.55091079200065,left,314.29710049999994,
stable,fall,stim_set/easy-20.png,314.3402979579987,316.02613974999986,fall,correct,1.6966976249968866,right,319.04737029199896,
stable,fall,stim_set/hard-451.png,319.0932757499977,320.90115041699755,fall,correct,1.8185948750033276,right,323.9218729999993,
stable,fall,stim_set/easy-vcom=3-142.png,323.9680067079971,325.6008739579993,stand,correct,1.6438680830033263,left,328.62232112499623,
stable,fall,stim_set/easy-590.png,328.66974370800017,329.9845450829962,fall,correct,1.3253224170039175,right,333.00513179199334,
stable,fall,stim_set/hard-vcom=4-45.png,333.0505212919961,334.3342782079999,stand,incorrect,1.294906417002494,left,337.3559372499949,
stable,fall,stim_set/easy-63.png,337.3986214999968,338.59326991699345,fall,correct,1.204891375004081,right,341.6140947499953,
stable,fall,stim_set/easy-vcom=1-83.png,341.6508364169931,344.3596039579934,fall,incorrect,2.7193334580006194,right,347.38082924999617,
stable,fall,stim_set/easy-31.png,347.42578658299317,348.4994814169986,fall,incorrect,1.0799073329981184,right,351.51606133299356,
stable,fall,stim_set/hard-vcom=2-45.png,351.55275512499793,354.11785216699354,stand,incorrect,2.576172000000952,left,357.13948487499874,
stable,fall,stim_set/easy-vcom=4-126.png,357.18691258299805,358.7161890419957,fall,correct,1.534752458006551,right,361.731794249994,
stable,fall,stim_set/hard-40.png,361.7774715419946,363.15998891699564,stand,correct,1.3938368750023074,left,366.18107441699976,
stable,fall,stim_set/hard-570.png,366.22871404199395,367.56761254199955,stand,correct,1.3500194169973838,left,370.58928408299835,
stable,fall,stim_set/easy-vcom=1-73.png,370.62664208299975,371.9495029999962,stand,correct,1.3286869170042337,left,374.9659409579981,
stable,fall,stim_set/hard-367.png,375.00906966699404,376.38299679199554,stand,correct,1.3796882499955245,left,379.3990140419992,
stable,fall,stim_set/hard-474.png,379.44161583299865,380.97622074999526,fall,correct,1.545580375001009,right,383.997220792,
stable,NA,stim_set/hard-214.png,1.7313200419957866,3.557293625002785,stand,correct,1.837967708997894,left,6.592349457998353,
stable,NA,stim_set/easy-122.png,6.636798082996393,8.407790999997815,fall,incorrect,1.782947667001281,right,11.43131020799774,
stable,NA,stim_set/easy-vcom=3-121.png,11.477680208001402,12.756244707998121,fall,correct,1.2845502499985741,right,15.772344375000102,
stable,NA,stim_set/hard-vcom=3-82.png,15.818416249996517,17.016075166997325,stand,correct,1.209313250001287,left,20.038061792001827,
stable,NA,stim_set/easy-228.png,20.076060291998147,21.231027583002287,fall,correct,1.1607655420011724,right,24.247306792000018,
stable,NA,stim_set/easy-11.png,24.29068383300182,25.347963207997964,fall,correct,1.0630928330065217,right,28.364380457998777,
stable,NA,stim_set/hard-492.png,28.40970124999876,29.664678374996583,stand,correct,1.2610708749998594,left,32.6818059579964,
stable,NA,stim_set/easy-vcom=1-87.png,32.728781541998615,33.92487033300131,stand,correct,1.2066425420052838,left,36.94568858300045,
stable,NA,stim_set/hard-599.png,36.98319924999669,38.516505874998984,stand,correct,1.543732165999245,left,41.53718362499785,
stable,NA,stim_set/easy-344.png,41.58031199999823,43.93316987500293,fall,correct,2.363358957998571,right,46.95417683300184,
stable,NA,stim_set/hard-vcom=1-95.png,46.99771745799808,48.597928167000646,stand,correct,1.6062977499968838,left,51.614185124999494,
stable,NA,stim_set/hard-576.png,51.651744875001896,53.48129720799625,stand,correct,1.8348698339978,left,56.49670262500149,
stable,NA,stim_set/hard-vcom=2-100.png,56.54140770799859,57.489644291999866,stand,correct,0.9539296249931795,left,60.505300707998686,
stable,NA,stim_set/hard-vcom=4-132.png,60.54730174999713,62.657657499999914,fall,incorrect,2.1210967500010156,right,65.67918741700123,
stable,NA,stim_set/hard-369.png,65.71644704200298,68.64950041699922,stand,incorrect,2.9441514999998617,left,71.67101604199706,
stable,NA,stim_set/hard-vcom=1-130.png,71.71413849999954,73.13961883299635,stand,correct,1.4310736249972251,left,76.15553583300061,
stable,NA,stim_set/easy-239.png,76.20161120800185,77.58965974999592,fall,correct,1.3936585000046762,right,80.60541454199847,
stable,NA,stim_set/hard-vcom=3-145.png,80.64267733300221,82.95802174999699,stand,incorrect,2.3260107090027304,left,85.97893329199724,
stable,NA,stim_set/hard-410.png,86.02591758299968,87.65618600000016,stand,incorrect,1.6358893329961575,left,90.67200579200289,
stable,NA,stim_set/easy-vcom=3-106.png,90.71577333300229,91.68961841699638,stand,correct,0.9795621669982211,left,94.70547983299912,
stable,NA,stim_set/hard-vcom=3-143.png,94.74897375,97.19788362499821,stand,correct,2.454838582998491,left,100.21408833299938,
stable,NA,stim_set/easy-233.png,100.26217675000225,101.24932858299871,fall,correct,0.9980838749979739,right,104.2711454579985,
stable,NA,stim_set/hard-vcom=4-23.png,104.31517845799681,106.04950100000133,fall,incorrect,1.7447233749990119,right,109.0707141669991,
stable,NA,stim_set/easy-8.png,109.11311849999765,110.27315004199772,fall,correct,1.165387417000602,right,113.28907383300248,
stable,NA,stim_set/easy-195.png,113.33256220800104,114.3660948329998,fall,correct,1.0439789579977514,right,117.38738029199885,
unstable,fall,stim_set/easy-vcom=4-4.png,124.24558237499878,125.38278149999678,fall,correct,1.1473706670003594,right,128.40462654199655,
unstable,fall,stim_set/hard-432.png,128.4520548750006,129.72473858299782,fall,correct,1.2832675000026939,right,132.74609695799882,
unstable,fall,stim_set/hard-382.png,132.7835345420026,133.74098683299962,stand,correct,0.9684137080039363,left,136.7624516249998,
unstable,fall,stim_set/easy-77.png,136.80660033300228,137.98098316699907,fall,correct,1.18046266699821,right,140.99794941699656,
unstable,fall,stim_set/hard-388.png,141.03549824999936,142.2245741250008,stand,correct,1.2000741250012652,left,145.24599829199724,
unstable,fall,stim_set/hard-439.png,145.29008995799813,147.26463204200263,fall,correct,1.9794895829982124,right,150.2800986250004,
unstable,fall,stim_set/hard-442.png,150.32802362499933,152.20625287500297,stand,correct,1.884655041998485,left,155.22253262499726,
unstable,fall,stim_set/hard-345.png,155.26596733299812,156.94959579200076,fall,correct,1.6939911660010694,right,159.97066391699627,
unstable,fall,stim_set/easy-13.png,160.01892383299855,161.5729568329989,fall,correct,1.559628832997987,right,164.58905479199893,
unstable,fall,stim_set/easy-vcom=3-136.png,164.63033591699786,166.25630991700018,fall,incorrect,1.631508041995403,right,169.2725072079993,
unstable,fall,stim_set/hard-vcom=2-144.png,169.31045258299855,170.6895914170018,stand,incorrect,1.3843195419976837,left,173.70543670799816,
unstable,fall,stim_set/easy-vcom=4-19.png,173.75302679200104,175.9144571249999,stand,incorrect,2.1672343340032967,left,178.93064395799593,
unstable,fall,stim_set/hard-2.png,178.9769664580017,180.23118266699748,stand,correct,1.2601157079989207,left,183.24765399999887,
unstable,fall,stim_set/hard-vcom=1-5.png,183.29080208300002,184.87292933299614,stand,correct,1.5888577500008978,left,187.88978645799943,
unstable,fall,stim_set/hard-271.png,187.937013499999,189.36443229200086,stand,correct,1.4330087089983863,left,192.38021983300132,
unstable,fall,stim_set/hard-556.png,192.42269824999676,193.35781883299933,stand,correct,0.9461715830038884,left,196.37941795799998,
unstable,fall,stim_set/hard-552.png,196.42570104199694,197.43136024999694,stand,correct,1.011236917001952,left,200.44792583300296,
unstable,fall,stim_set/hard-vcom=2-20.png,200.4947947920009,201.38285679199907,stand,correct,0.8997127920010826,left,204.40437949999614,
unstable,fall,stim_set/hard-21.png,204.44714841699897,205.57296399999905,stand,correct,1.1317659159976756,left,208.5895332919972,
unstable,fall,stim_set/easy-vcom=1-145.png,208.63516112499929,209.6143100420013,stand,correct,0.9851862079958664,left,212.6304305829981,
unstable,fall,stim_set/easy-121.png,212.67859637500078,214.13120150000032,fall,incorrect,1.4578961250008433,right,217.14681425000163,
unstable,fall,stim_set/hard-82.png,217.1930072499963,218.097903666996,stand,correct,0.9104108749961597,left,221.11385491699912,
unstable,fall,stim_set/hard-371.png,221.15075504199922,223.00770295799884,stand,correct,1.8683597089984687,left,226.02888116699614,
unstable,fall,stim_set/hard-vcom=3-100.png,226.0726887080018,228.3829655419977,stand,incorrect,2.320779292000225,left,231.40380087499943,
unstable,fall,stim_set/hard-590.png,231.4499359170004,232.83280308300164,fall,correct,1.3938452500005951,right,235.85385029199824,
unstable,fall,stim_set/easy-121.png,249.25688104199799,250.89126541699807,fall,incorrect,1.644152540997311,right,253.91272358300193,
unstable,fall,stim_set/hard-271.png,253.95808945799945,255.63927658300236,stand,correct,1.6877174580004066,left,258.6562927080013,
unstable,fall,stim_set/hard-382.png,258.69263891699666,259.5228686670016,stand,correct,0.835510750002868,left,262.5391833329995,
unstable,fall,stim_set/hard-82.png,262.5836932919992,263.63121704199875,stand,correct,1.05329466600233,left,266.64723895800125,
unstable,fall,stim_set/hard-371.png,266.6832766250009,268.4561967080008,stand,correct,1.7793363749951823,left,271.4729360830024,
unstable,fall,stim_set/hard-556.png,271.5136843329965,272.7729457500027,stand,correct,1.2651430000041728,left,275.7893479999984,
unstable,fall,stim_set/hard-388.png,275.825453999998,276.78299308299756,stand,correct,0.9686586249954416,left,279.804150750002,
unstable,fall,stim_set/easy-vcom=4-4.png,279.8462016670019,280.9580504999976,fall,correct,1.1225053750022198,right,283.9790817499961,
unstable,fall,stim_set/easy-vcom=3-136.png,284.0188432499999,286.2160637920024,fall,incorrect,2.2083860420025303,right,289.23782058300276,
unstable,fall,stim_set/hard-vcom=1-5.png,289.279996792,291.71443970799737,fall,incorrect,2.4402430830014055,right,294.7303502079958,
unstable,fall,stim_set/hard-590.png,294.7749689580014,295.8061954579971,fall,correct,1.0371607080014655,right,298.82226850000006,
unstable,fall,stim_set/hard-21.png,298.86351362500136,300.23301450000145,stand,correct,1.3804861250027898,left,303.2542685829976,
unstable,fall,stim_set/hard-345.png,303.2961576669986,305.0077661670002,fall,correct,1.7229132919965195,right,308.0293344169986,
unstable,fall,stim_set/hard-439.png,308.071851875,309.28292283300107,fall,correct,1.2216428749961779,right,312.30404937500134,
unstable,fall,stim_set/hard-vcom=2-144.png,312.3402624579976,314.27463975000137,fall,correct,1.945214291998127,right,317.29609337500005,
unstable,fall,stim_set/hard-2.png,317.34076204199664,319.26447487500263,stand,correct,1.9299956660033786,left,322.28078220799944,
unstable,fall,stim_set/easy-13.png,322.32735862499976,324.7913258330009,stand,incorrect,2.474238916001923,left,327.8125607080001,
unstable,fall,stim_set/easy-vcom=1-145.png,327.8569919579968,329.2563285419965,stand,correct,1.405443791001744,left,332.27299229199707,
unstable,fall,stim_set/hard-vcom=3-100.png,332.31490399999893,334.1393562500016,stand,incorrect,1.8302135420017294,left,337.15572124999744,
unstable,fall,stim_set/easy-vcom=4-19.png,337.20153612500144,339.0062137080022,fall,correct,1.8104316669996479,right,342.0222031250014,
unstable,fall,stim_set/easy-77.png,342.0641956670006,344.2493833330009,fall,correct,2.196408584000892,right,347.2708040829966,
unstable,fall,stim_set/hard-442.png,347.31721066700266,348.66439058299875,stand,correct,1.3537003750025178,left,351.68142370799615,
unstable,fall,stim_set/hard-432.png,351.72754583299684,352.8747099579996,fall,correct,1.1581714999992982,right,355.89610549999634,
unstable,fall,stim_set/hard-552.png,355.9411594580015,357.6642623750013,stand,correct,1.7292860840025241,left,360.68070066699875,
unstable,fall,stim_set/hard-vcom=2-20.png,360.72652004200063,361.58118837499933,stand,correct,0.8608792919985717,left,364.5983001670029,
stable,stand,stim_set/easy-vcom=2-3.png,2.2790882920016884,4.138243749999674,fall,correct,1.8704989170000772,right,7.172714917003759,
stable,stand,stim_set/easy-vcom=4-126.png,7.220853917002387,8.478706417001376,fall,correct,1.2704257909936132,right,11.513033125003858,
stable,stand,stim_set/hard-451.png,11.559548208002525,12.986305708000145,fall,correct,1.4323845830003847,right,16.0023088750022,
stable,stand,stim_set/hard-vcom=1-3.png,16.046681708001415,16.96960187500372,stand,correct,0.9285479579993989,left,19.985515125001257,
stable,stand,stim_set/easy-vcom=1-83.png,20.0235692080023,21.278021875004924,stand,correct,1.2601732089970028,left,24.295044625003356,
stable,stand,stim_set/hard-vcom=4-45.png,24.340786042004765,25.569567083002767,stand,incorrect,1.2346249999973224,left,28.585588125002687,
stable,stand,stim_set/easy-63.png,28.628924708005798,29.88633337500505,fall,correct,1.26322600000276,right,32.9032999580013,
stable,stand,stim_set/easy-vcom=4-69.png,32.95065587499994,34.66263329200592,fall,correct,1.7231030000039027,right,37.68416279200028,
stable,stand,stim_set/easy-538.png,37.72675162499945,39.01313462500548,fall,correct,1.296747583000979,right,42.0338777500001,
stable,stand,stim_set/hard-40.png,42.08073300000251,43.15306608300307,stand,correct,1.0775843330047792,left,46.16887587500241,
stable,stand,stim_set/easy-590.png,46.21686883300572,47.31959929200093,fall,correct,1.1089151660053176,right,50.33603279200179,
stable,stand,stim_set/hard-563.png,50.38447270799952,52.561462792000384,fall,incorrect,2.1829140830013785,right,55.57754829200712,
stable,stand,stim_set/hard-570.png,55.625665624997055,56.46313487500447,stand,correct,0.8482845410035225,left,59.484469708004326,
stable,stand,stim_set/easy-20.png,59.52824983299797,60.53781037500448,fall,correct,1.0204765000089537,right,63.55956170800346,
stable,stand,stim_set/hard-vcom=2-45.png,63.59674850000738,65.08628708300967,fall,correct,1.4951056669960963,right,68.10238787500566,
stable,stand,stim_set/hard-vcom=4-130.png,68.14659816699714,69.529297167006,stand,incorrect,1.3934788330079755,left,72.55075433300954,
stable,stand,stim_set/hard-vcom=4-67.png,72.59536145799939,74.87800658299966,stand,incorrect,2.2887355419952655,left,77.89452654199704,
stable,stand,stim_set/easy-vcom=3-125.png,77.94292304199917,79.61956120799732,stand,correct,1.6823137079918524,left,82.63558779200685,
stable,stand,stim_set/easy-vcom=3-142.png,82.68174262499815,85.06131195800117,stand,correct,2.385329875003663,left,88.07786170799955,
stable,stand,stim_set/easy-vcom=1-73.png,88.11485825001,90.00432216699846,fall,incorrect,1.9003027080034371,right,93.0257800830077,
stable,stand,stim_set/easy-280.png,93.06943508300901,93.99459150000621,fall,correct,0.9308084170043003,right,97.01072574999853,
stable,stand,stim_set/hard-474.png,97.05456545799825,97.9862740000026,fall,correct,0.9373035409953445,right,101.00202516699937,
stable,stand,stim_set/hard-vcom=2-16.png,101.05045100001007,102.98771491699881,fall,incorrect,1.9482405000017025,right,106.00902616700478,
stable,stand,stim_set/easy-31.png,106.05502245800017,107.05307412500406,fall,incorrect,1.0038123749982333,right,110.06940037500317,
stable,stand,stim_set/hard-367.png,110.11326183300844,111.26955791700311,stand,correct,1.1626630839891732,left,114.28583183300361,
unstable,stand,stim_set/hard-590.png,124.320130583008,125.72977454200009,fall,correct,1.419039333006367,right,128.75150516699796,
unstable,stand,stim_set/hard-vcom=2-20.png,128.7975776250023,130.0196131670018,stand,correct,1.2283377499989,left,133.03840858300828,
unstable,stand,stim_set/hard-vcom=2-144.png,133.07519258300454,135.45315762500832,stand,incorrect,2.3835097089904593,left,138.46907300000748,
unstable,stand,stim_set/hard-82.png,138.5140173750042,140.53628300000128,fall,incorrect,2.0284370000008494,right,143.55235825001,
unstable,stand,stim_set/hard-382.png,143.58852725000907,144.53626495799836,stand,correct,0.9532471670099767,left,147.5529052080019,
unstable,stand,stim_set/hard-271.png,147.5984162080058,148.57803024999885,stand,correct,0.9852670830005081,left,151.59419266699842,
unstable,stand,stim_set/hard-432.png,151.64054683299764,152.8381881250025,fall,correct,1.208581041006255,right,155.85980070800724,
unstable,stand,stim_set/hard-vcom=3-100.png,155.90154979199724,157.6528330420042,stand,incorrect,1.7571859159943415,left,160.66973587500252,
unstable,stand,stim_set/hard-vcom=1-5.png,160.71158587499667,162.7711702500019,fall,incorrect,2.0704287919943454,right,165.79229091700836,
unstable,stand,stim_set/hard-556.png,165.8334291669962,167.71140441700845,stand,correct,1.8835640420002164,left,170.72776041700126,
unstable,stand,stim_set/hard-371.png,170.7638909169982,173.53624154200224,fall,incorrect,2.7784314999880735,right,176.55248704199767,
unstable,stand,stim_set/hard-2.png,176.59719120800582,177.55483366699627,stand,correct,0.9682944169908296,left,180.57550708299823,
unstable,stand,stim_set/hard-552.png,180.6201011669982,181.53758424999978,stand,correct,0.9284710829961114,left,184.5590907079968,
unstable,stand,stim_set/hard-439.png,184.60192387500865,185.63791620800475,fall,correct,1.0469416249979986,right,188.65962562499772,
unstable,stand,stim_set/easy-vcom=4-19.png,188.70612633300334,191.34636891700939,fall,correct,2.6514203749975422,right,194.3675385000024,
unstable,stand,stim_set/easy-13.png,194.41414629200153,195.8362895829996,stand,incorrect,1.4287577079958282,left,198.85300908300997,
unstable,stand,stim_set/easy-vcom=1-145.png,198.8976329579964,200.17779400001018,stand,correct,1.2857345000084024,left,203.19367258300917,
unstable,stand,stim_set/easy-121.png,203.24038545799704,205.62957354200626,fall,incorrect,2.3999750840011984,right,208.65125425000588,
unstable,stand,stim_set/easy-vcom=3-136.png,208.6914947920086,210.4445928330024,fall,incorrect,1.7588853750057751,right,213.4611532080089,
unstable,stand,stim_set/hard-345.png,213.50324745800026,215.07955874999607,fall,correct,1.5871240419946844,right,218.10088104200986,
unstable,stand,stim_set/hard-388.png,218.13751108300494,218.82942212500348,stand,correct,0.7027115410019178,left,221.85066925000137,
unstable,stand,stim_set/hard-21.png,221.8925149170027,222.90434045800794,stand,correct,1.0227630409935955,left,225.92611433300044,
unstable,stand,stim_set/hard-442.png,225.9728787080021,228.12801083300292,stand,correct,2.1607424579997314,left,231.14407683299942,
unstable,stand,stim_set/easy-vcom=4-4.png,231.18651550000504,232.19649887500418,fall,correct,1.0209547920094337,right,235.21800891700696,
unstable,stand,stim_set/easy-77.png,235.2603078750035,236.46131104199594,fall,correct,1.2064992500090739,right,239.4769847080097,
stable,stand,stim_set/hard-369.png,252.83077799999592,254.5128792920077,fall,correct,1.691892957998789,right,257.53385945800255,
stable,stand,stim_set/easy-vcom=1-87.png,257.5795720420065,259.14617170800193,stand,correct,1.577494042008766,left,262.16716625000845,
stable,stand,stim_set/easy-233.png,262.2138800830071,264.0113017080075,fall,correct,1.8029077920073178,right,267.02758908300166,
stable,stand,stim_set/hard-vcom=4-23.png,267.0702276250013,268.304674542007,stand,correct,1.2451460840093205,left,271.32628616700094,
stable,stand,stim_set/easy-122.png,271.368807208004,273.9945652079987,fall,incorrect,2.631618166997214,right,277.0107999170068,
stable,stand,stim_set/hard-vcom=3-145.png,277.04725520801003,278.3030995829977,stand,incorrect,1.2615434589970391,left,281.3195485420074,
stable,stand,stim_set/hard-599.png,281.35558058300376,282.5777760830024,stand,correct,1.2280427079967922,left,285.5940564170087,
stable,stand,stim_set/hard-vcom=1-95.png,285.6361847080043,287.2713359170084,stand,correct,1.64573304199439,left,290.2925063329967,
stable,stand,stim_set/hard-vcom=1-130.png,290.3338907500074,292.04612500000076,fall,incorrect,1.7224778750096448,right,295.0672598750025,
stable,stand,stim_set/hard-576.png,295.1037366669989,296.1629982079976,stand,correct,1.069733249998535,left,299.18394258300395,
stable,stand,stim_set/easy-8.png,299.22438812499604,300.50287329199637,fall,correct,1.2841348749934696,right,303.5188955830017,
stable,stand,stim_set/easy-344.png,303.56073916699825,304.51242849999835,fall,correct,0.9626525000057882,right,307.53391775000637,
stable,stand,stim_set/hard-vcom=3-143.png,307.57598958300514,309.1361119580033,stand,correct,1.5658199159952346,left,312.1528673750072,
stable,stand,stim_set/hard-492.png,312.1966243749994,313.82926425000915,stand,correct,1.6434593750018394,left,316.8501193750053,
stable,stand,stim_set/hard-410.png,316.8960612919982,319.3877298750085,stand,incorrect,2.502413832989987,left,322.4099227500046,
stable,stand,stim_set/easy-228.png,322.4459264170073,323.79453716699936,fall,correct,1.3539583329984453,right,326.8100779580054,
stable,stand,stim_set/hard-214.png,326.8565728330068,327.7211347080083,stand,correct,0.8757076250039972,left,330.74257550000766,
stable,stand,stim_set/easy-vcom=3-106.png,330.7846383329961,331.9963543749982,stand,correct,1.221979541995097,left,335.0175178749996,
stable,stand,stim_set/hard-vcom=4-132.png,335.0585232920057,336.71110254200903,fall,incorrect,1.658380084001692,right,339.72732637500303,
stable,stand,stim_set/easy-195.png,339.76945949999936,340.9946165000074,fall,correct,1.2306729999982053,right,344.0105253750007,
stable,stand,stim_set/easy-vcom=3-121.png,344.0554532919996,345.88613391700346,fall,correct,1.8363007919979282,right,348.9019633330099,
stable,stand,stim_set/hard-vcom=2-100.png,348.9448477080077,349.90291545799846,stand,correct,0.9643360409972956,left,352.9198539170102,
stable,stand,stim_set/hard-vcom=3-82.png,352.964326082998,353.9778302499981,stand,correct,1.0195680000033462,left,356.9945511670012,
stable,stand,stim_set/easy-239.png,357.0388906250082,357.9862556250082,fall,correct,0.9530091249907855,right,361.00245204200473,
stable,stand,stim_set/easy-11.png,361.046393500008,362.8548391250006,fall,correct,1.8189733750041341,right,365.87626116700267,
