batch_type,motivation,towers,trial_start,stim_on,choice,key,trial_end,acc,rt,score
unstable,stand,stim_set/hard-vcom=3-142.png,6.644938375000493,11.661722583001392,NA,NA,18.65764599999966,,,212.0
unstable,stand,stim_set/hard-555.png,18.702417291002348,22.23831174999941,fall,right,25.260685332999856,incorrect,3.547593709001376,
unstable,stand,stim_set/easy-411.png,25.308562624999468,27.880479875002493,fall,right,30.900829207999777,correct,2.582491791999928,
unstable,stand,stim_set/hard-vcom=4-147.png,30.94940645799943,32.67827995799962,fall,right,35.6940020410002,incorrect,1.7344099999972968,
unstable,stand,stim_set/hard-vcom=4-22.png,35.74261629100147,36.99497904099917,fall,right,40.011362790999556,incorrect,1.2578285839990713,
unstable,stand,stim_set/easy-vcom=1-12.png,40.05859112500184,44.3116967499991,fall,right,47.33104429100058,incorrect,4.2590425840026,
unstable,stand,stim_set/hard-441.png,47.37286200000017,49.15488129100049,fall,right,52.17562087500119,correct,1.7928790420010046,
unstable,stand,stim_set/hard-600.png,52.213191833001474,53.24496983300196,fall,right,56.26050337500055,incorrect,1.0369511669996427,
unstable,stand,stim_set/hard-vcom=4-88.png,56.30348337500254,59.40325033300178,stand,left,62.41959520800083,correct,3.105974250000145,
unstable,stand,stim_set/easy-vcom=2-73.png,62.46254816600049,64.32178079100049,fall,right,67.34312991600018,correct,1.8698603340017144,
unstable,stand,stim_set/hard-440.png,67.3872936250009,69.40432408299966,fall,right,72.42638179099959,correct,2.0283865829987917,
unstable,stand,stim_set/hard-280.png,72.47425704100169,73.42827925000165,fall,right,76.44406150000214,incorrect,0.9592924580028921,
unstable,stand,stim_set/hard-vcom=1-92.png,76.49205991599956,77.42001458300001,fall,right,80.43583037500139,correct,0.9334697910016985,
unstable,stand,stim_set/hard-78.png,80.4815830410007,81.27173783300168,fall,right,84.29271820800204,incorrect,0.8009090000014112,
unstable,stand,stim_set/easy-164.png,84.3404799580021,87.22825437500069,stand,left,90.2445079579993,incorrect,2.893500958001823,
unstable,stand,stim_set/easy-586.png,90.29051574999903,91.30490250000003,fall,right,94.3268835830022,correct,1.0258479580006679,
unstable,stand,stim_set/easy-542.png,94.3739026660005,95.82821066600081,fall,right,98.84448095799962,correct,1.460100959000556,
unstable,stand,stim_set/hard-vcom=2-95.png,98.88158575000125,101.18636250000054,stand,left,104.20294362500135,correct,2.3112545830008457,
unstable,stand,stim_set/easy-304.png,104.24905100000251,105.95320616599929,fall,right,108.96932379099962,incorrect,1.7101020839982084,
unstable,stand,stim_set/hard-vcom=4-27.png,109.01749075000043,110.64499441600128,stand,left,113.6611844580002,incorrect,1.6334052920028626,
unstable,stand,stim_set/hard-vcom=4-139.png,113.70453104099943,115.1384584160005,fall,right,118.15956550000192,incorrect,1.4445310830014932,
unstable,stand,stim_set/hard-286.png,118.20803654100018,119.84653779099972,stand,left,122.86746800000037,correct,1.6495281249990512,
unstable,stand,stim_set/easy-28.png,122.91329341600067,125.30495529100153,fall,right,128.32667975000004,correct,2.402507999999216,
unstable,stand,stim_set/hard-14.png,128.36409116600043,130.06151658300223,stand,left,133.0775136250013,incorrect,1.703111708000506,
unstable,stand,stim_set/easy-318.png,133.12333604100058,136.08784166600162,fall,right,139.10946516600234,correct,2.975459958001011,
unstable,fall,stim_set/hard-vcom=4-147.png,197.42069412500132,200.5446978330001,stand,left,203.56047987499915,correct,3.128579541000363,
unstable,fall,stim_set/easy-164.png,203.6070950409994,207.05297975000212,stand,left,210.068867375001,incorrect,3.452306791998126,
unstable,fall,stim_set/hard-441.png,210.10955087500042,211.78627466599937,stand,left,214.8021549160003,incorrect,1.6822382499995001,
unstable,fall,stim_set/easy-411.png,214.84824666600252,218.12794112499978,stand,left,221.14433400000053,incorrect,3.2850439169997117,
unstable,fall,stim_set/hard-286.png,221.19110616599937,222.7546351250021,stand,left,225.77605445800145,correct,1.574422499998036,
unstable,fall,stim_set/easy-542.png,225.82169316599902,228.1694922909992,stand,left,231.18583733299965,incorrect,2.3533606250020966,
unstable,fall,stim_set/easy-318.png,231.23010145800072,233.27120479099904,stand,left,236.29206479099958,incorrect,2.0519019170023967,
unstable,fall,stim_set/hard-440.png,236.3347439579993,239.41119658300158,stand,left,242.4270836249998,incorrect,3.081864042000234,
unstable,fall,stim_set/hard-vcom=1-92.png,242.47359641599905,245.82775166600186,fall,right,248.84340654100015,correct,3.35972099999708,
unstable,fall,stim_set/hard-555.png,248.88560074999987,250.57112304100156,stand,left,253.59253308299958,correct,1.6964242920003016,
unstable,fall,stim_set/easy-304.png,253.63637704099892,255.26120425000045,stand,left,258.27738654100176,correct,1.6304176670018933,
unstable,fall,stim_set/hard-280.png,258.32313016600165,261.5631400830025,stand,left,264.58426583300025,correct,3.25091466700178,
unstable,fall,stim_set/hard-vcom=3-142.png,264.630496916001,267.7946033750013,stand,left,270.8103795410025,correct,3.169575750001968,
unstable,fall,stim_set/hard-600.png,270.84617420799987,272.3777271660001,stand,left,275.3944212080023,correct,1.5379145000006247,
unstable,fall,stim_set/hard-vcom=4-139.png,275.4362204579993,278.6859848749991,stand,left,281.7024538330006,correct,3.2552443749991653,
unstable,fall,stim_set/hard-14.png,281.73875154100097,283.0443336249991,stand,left,286.06055087500135,incorrect,1.3115234159995453,
unstable,fall,stim_set/hard-vcom=4-27.png,286.10705487499945,289.23598095800116,stand,left,292.25184429100045,incorrect,3.1342664580006385,
unstable,fall,stim_set/easy-28.png,292.29600829099945,294.86944824999955,stand,left,297.8855970830009,incorrect,2.579517083999235,
unstable,fall,stim_set/hard-vcom=4-22.png,297.93225299999904,302.93595624999944,NA,NA,309.5245271660024,,,
unstable,fall,stim_set/hard-78.png,309.56916275000185,310.8192562910008,stand,left,313.8357057909998,correct,1.2556229999972857,
unstable,fall,stim_set/easy-vcom=1-12.png,313.88171141600105,315.01098129100137,stand,left,318.02697400000034,correct,1.134710708000057,
unstable,fall,stim_set/easy-vcom=2-73.png,318.06802620800227,320.1692660410008,stand,left,323.1850310000009,incorrect,2.106811249999737,
unstable,fall,stim_set/hard-vcom=2-95.png,323.2208267909991,324.9378176249993,stand,left,327.95878366599936,correct,1.7276589579996653,
unstable,fall,stim_set/hard-vcom=4-88.png,327.99998187500023,329.2023416660013,stand,left,332.2184228750011,correct,1.207917332998477,
unstable,fall,stim_set/easy-586.png,332.26230779099933,336.1357992080011,stand,left,339.1521358329992,incorrect,3.879555666997476,
stable,stand,stim_set/easy-vcom=3-125.png,411.34932491600193,416.201981000002,fall,right,419.2179928330006,incorrect,4.857381750000059,
stable,stand,stim_set/easy-vcom=2-3.png,419.2640198750014,420.73551604100066,fall,right,423.7519148329993,correct,1.4777163750004547,
stable,stand,stim_set/hard-vcom=4-67.png,423.7959470829992,425.12905520799904,fall,right,428.1497190830014,correct,1.3430557909996423,
stable,stand,stim_set/easy-vcom=1-73.png,428.1872441250016,429.83553604100234,stand,left,432.85136283300017,correct,1.6538456669986772,
stable,stand,stim_set/hard-563.png,432.8995956660001,437.261979916002,stand,left,440.28355362500224,correct,4.373577291000402,
stable,stand,stim_set/easy-280.png,440.3272772500022,441.5769990000008,fall,right,444.5937400410003,correct,1.2556782920000842,
stable,stand,stim_set/easy-31.png,444.6390665830004,445.8937168750017,fall,right,448.90952829100206,incorrect,1.2598163330003445,
stable,stand,stim_set/easy-vcom=4-126.png,448.95724929100106,450.4854639160003,fall,right,453.50169950000054,correct,1.5346061660020496,
stable,stand,stim_set/hard-vcom=2-16.png,453.5500041660016,456.35204024999985,stand,left,459.36838637500114,correct,2.808250083002349,
stable,stand,stim_set/easy-vcom=3-142.png,459.41456212499907,461.95374937499946,stand,left,464.9750551249999,correct,2.5502740840020124,
stable,stand,stim_set/easy-vcom=1-83.png,465.0121627910012,467.12039283299964,fall,right,470.14121033300034,incorrect,2.1187129999998433,
stable,stand,stim_set/hard-40.png,470.18800662500144,471.8102939160017,stand,left,474.82645616599984,correct,1.6282252500022878,
stable,stand,stim_set/easy-vcom=4-69.png,474.8734727910014,476.72702270800073,fall,right,479.7427252080015,correct,1.859017708000465,
stable,stand,stim_set/hard-vcom=2-45.png,479.78038179099894,480.8202811250012,fall,right,483.8415152080015,correct,1.0511731670012523,
stable,stand,stim_set/hard-vcom=4-130.png,483.88560725000207,485.1850044999992,stand,left,488.2014759160011,incorrect,1.3058506670022325,
stable,stand,stim_set/easy-20.png,488.24544295799933,489.56855695800186,fall,right,492.58412345800025,correct,1.3291327499973704,
stable,stand,stim_set/hard-451.png,492.630354375,493.96017575000224,fall,right,496.9772771249991,correct,1.3364754590002121,
stable,stand,stim_set/hard-367.png,497.0211575829999,498.893564541002,fall,right,501.9093789159997,incorrect,1.878114999999525,
stable,stand,stim_set/easy-538.png,501.9517215830019,503.6185146249991,fall,right,506.63551508300225,correct,1.6738711250000051,
stable,stand,stim_set/hard-vcom=1-3.png,506.68013350000183,507.75361158300075,stand,left,510.7746025410015,correct,1.0838641249974899,
stable,stand,stim_set/easy-63.png,510.81875529100216,512.1932671249997,fall,right,515.2096947499995,correct,1.380523625000933,
stable,stand,stim_set/easy-590.png,515.2580267080011,517.3033315409994,fall,right,520.3249812079994,correct,2.056747999999061,
stable,stand,stim_set/hard-570.png,520.3729866249996,522.7017638329999,stand,left,525.7183190409996,correct,2.3351006250013597,
stable,stand,stim_set/hard-474.png,525.7615918750016,530.7698623329998,NA,NA,535.712795083,,,
stable,stand,stim_set/hard-vcom=4-45.png,535.7586802080004,537.1199720830009,stand,left,540.1413953330011,incorrect,1.3723224160021346,
stable,fall,stim_set/hard-vcom=3-143.png,7.981317165998917,9.940631624998787,stand,left,12.962105624999822,correct,1.9688192079993314,
stable,fall,stim_set/easy-vcom=3-121.png,13.008369999999559,14.365258457997697,fall,right,17.386470665998786,correct,1.3677313329972094,
stable,fall,stim_set/easy-11.png,17.42988554099793,18.6317325409982,fall,right,21.653583332998096,correct,1.2131642919994192,
stable,fall,stim_set/easy-239.png,21.69953408299989,22.881461624998337,stand,left,25.90329500000007,incorrect,1.1929572920016653,
stable,fall,stim_set/hard-492.png,25.948728666000534,26.946773208001105,stand,left,29.96311083299952,correct,1.0039870830005384,
stable,fall,stim_set/easy-233.png,30.01138195800013,31.323487790999934,fall,right,34.34460758299974,correct,1.3225328330008779,
stable,fall,stim_set/easy-8.png,34.38635649999924,36.49856683300095,fall,right,39.519542750000255,correct,2.122867625002982,
stable,fall,stim_set/easy-228.png,39.556777540998155,41.11506566599928,stand,left,44.136067999999796,incorrect,1.5692672919976758,
stable,fall,stim_set/hard-vcom=4-23.png,44.17997816600109,48.14012454099793,stand,left,51.16187608299879,correct,3.9712517499974638,
stable,fall,stim_set/easy-122.png,51.205672125001,52.50503029099855,fall,right,55.52116324999952,incorrect,1.3050883329997305,
stable,fall,stim_set/easy-vcom=3-106.png,55.56506845799959,57.54812270799812,stand,left,60.56960916599928,correct,1.9941838330014434,
stable,fall,stim_set/hard-vcom=3-145.png,60.60717191599906,62.06477066599837,stand,left,65.08642370799862,incorrect,1.4685367089987267,
stable,fall,stim_set/hard-214.png,65.13369829099975,66.28828166599851,stand,left,69.30416637500093,correct,1.1601054579987249,
stable,fall,stim_set/hard-vcom=1-95.png,69.347144708001,70.78172566599824,stand,left,73.80273283299903,correct,1.4457050839992007,
stable,fall,stim_set/easy-vcom=1-87.png,73.84936474999995,75.27960941600031,stand,left,78.29652324999915,correct,1.4371126669975638,
stable,fall,stim_set/hard-369.png,78.33401420799782,79.91323316600028,fall,right,82.9292997909979,correct,1.5844924580014776,
stable,fall,stim_set/easy-344.png,82.97214383299797,84.97978099999818,stand,left,87.99687329099834,incorrect,2.0135580409987597,
stable,fall,stim_set/hard-576.png,88.03448095799831,89.3377783750002,stand,left,92.35408408299918,correct,1.3095462499986752,
stable,fall,stim_set/hard-vcom=3-82.png,92.39982416600105,93.60485020800115,stand,left,96.62074641599975,correct,1.2099398329992255,
stable,fall,stim_set/easy-195.png,96.66383712500101,97.8378685409989,fall,right,100.85468150000088,correct,1.1805173329994432,
stable,fall,stim_set/hard-599.png,100.89180820799811,101.85607866599821,stand,left,104.87744137499976,correct,0.9754176250025921,
stable,fall,stim_set/hard-vcom=1-130.png,104.92009204100032,106.18140733299879,stand,left,109.20288233300016,correct,1.27206699999806,
stable,fall,stim_set/hard-vcom=4-132.png,109.24453345800066,110.62175445799949,fall,right,113.6375542909991,incorrect,1.3826192909982638,
stable,fall,stim_set/hard-410.png,113.68502491599793,116.22254454100039,stand,left,119.24409191599989,incorrect,2.548919624998234,
stable,fall,stim_set/hard-vcom=2-100.png,119.28860291599995,120.51306858300086,stand,left,123.52900441599922,correct,1.2307248750003055,
stable,stand,stim_set/hard-576.png,139.45370891600032,142.0308242079991,stand,left,145.05292520799776,correct,2.587420457999542,
stable,stand,stim_set/easy-344.png,145.09411229100078,146.156402624998,fall,right,149.1773430409994,correct,1.0734265000028245,
stable,stand,stim_set/easy-vcom=3-121.png,149.2224801659977,150.2212601249994,fall,right,153.23769445799917,correct,1.0044645839989244,
stable,stand,stim_set/hard-492.png,153.2813915000006,154.0545991250001,fall,right,157.07028583300053,incorrect,0.7790329160015972,
stable,stand,stim_set/hard-599.png,157.10618766599873,158.37950683300005,stand,left,161.39539395799875,correct,1.2789598330018634,
stable,stand,stim_set/hard-vcom=1-130.png,161.43672941600016,162.61275816600028,stand,left,165.62888895799915,correct,1.1821084170005633,
stable,stand,stim_set/hard-410.png,165.6747249580003,166.9044601659989,fall,right,169.920101290998,correct,1.2353607920013019,
stable,stand,stim_set/hard-214.png,169.9663496659996,171.97103695799888,stand,left,174.98774566599968,correct,2.010580875001324,
stable,stand,stim_set/easy-195.png,175.02969633300017,176.22924341600083,fall,right,179.2457892909988,correct,1.2056773330004944,
stable,stand,stim_set/hard-vcom=4-23.png,179.2884513329991,180.4127767909995,stand,left,183.4292373749995,correct,1.1304204579973884,
stable,stand,stim_set/hard-vcom=3-143.png,183.47062616599942,184.58073687499927,stand,left,187.60215383299874,correct,1.1213861659998656,
stable,stand,stim_set/easy-8.png,187.642932499999,188.6059104579981,fall,right,191.6277640829976,correct,0.973891542002093,
stable,stand,stim_set/easy-228.png,191.66369579099774,192.66251529099827,fall,right,195.67925629099773,correct,1.0046368750008696,
stable,stand,stim_set/easy-122.png,195.72178937499848,196.94603804099825,fall,right,199.9622137080005,incorrect,1.2304596670001047,
stable,stand,stim_set/hard-vcom=3-145.png,199.99813862500014,201.8710608750007,stand,left,204.88731812499827,incorrect,1.878432374996919,
stable,stand,stim_set/easy-vcom=1-87.png,204.9328288329998,206.5127381659986,stand,left,209.52847120799925,correct,1.5856216250031139,
stable,stand,stim_set/easy-239.png,209.57277387499926,210.9809976659999,fall,right,214.002342374999,correct,1.4187052919987764,
stable,stand,stim_set/easy-vcom=3-106.png,214.04412695800056,215.221049415999,stand,left,218.23720762499943,correct,1.1828466670012858,
stable,stand,stim_set/hard-vcom=2-100.png,218.28097958299986,223.28941120799936,NA,NA,229.69294454099872,,,
stable,stand,stim_set/easy-11.png,229.73591074999786,230.99722620800094,fall,right,234.01896108299843,correct,1.2723184170026798,
stable,stand,stim_set/hard-369.png,234.05594395799926,235.32929666600103,fall,right,238.34527579099813,correct,1.2795504170026106,
stable,stand,stim_set/easy-233.png,238.3927593749977,239.39585850000003,fall,right,242.41230899999937,correct,1.009342542001832,
stable,stand,stim_set/hard-vcom=4-132.png,242.45397633299945,243.71423079099986,fall,right,246.7360865829978,incorrect,1.2715760829996725,
stable,stand,stim_set/hard-vcom=1-95.png,246.77883999999904,248.02920691599866,stand,left,251.04637262499818,correct,1.2568375000009837,
stable,stand,stim_set/hard-vcom=3-82.png,251.09174483300012,252.1957552499989,stand,left,255.2119375830007,correct,1.1097316659979697,
unstable,stand,stim_set/hard-14.png,305.2209830409993,310.23719145799987,NA,NA,315.37572041599924,,,
unstable,stand,stim_set/easy-586.png,315.4216739580006,319.59562395800094,stand,left,322.61155874999895,incorrect,4.179216707998421,
unstable,stand,stim_set/hard-vcom=4-27.png,322.659954540999,323.66217691600104,fall,right,326.67879804100085,correct,1.0081927920000453,
unstable,stand,stim_set/hard-600.png,326.71633437499986,328.4799959160009,fall,right,331.50241504099904,incorrect,1.775163500002236,
unstable,stand,stim_set/hard-vcom=3-142.png,331.5504714159979,333.45375704099934,stand,left,336.4699756660011,correct,1.9097320410000975,
unstable,stand,stim_set/hard-441.png,336.51174999999785,337.31218375000026,fall,right,340.3281063329996,correct,0.8060625830003119,
unstable,stand,stim_set/easy-318.png,340.37399045799975,341.90373058299883,fall,right,344.91939808299867,correct,1.53579041699777,
unstable,stand,stim_set/easy-vcom=1-12.png,344.9672294999982,346.79527249999956,stand,left,349.810947957998,correct,1.8340656250002212,
unstable,stand,stim_set/easy-164.png,349.85929320799914,350.6969011660003,fall,right,353.71829358299874,correct,0.8493423750005604,
unstable,stand,stim_set/easy-28.png,353.764509790999,355.28695900000093,fall,right,358.3033585409976,correct,1.5283733340002073,
unstable,stand,stim_set/hard-78.png,358.34926283299865,359.56386912499875,stand,left,362.5845734579998,correct,1.225163082999643,
unstable,stand,stim_set/hard-280.png,362.63222137499906,363.9221281659993,fall,right,366.94355712499964,incorrect,1.3009249999995518,
unstable,stand,stim_set/hard-vcom=2-95.png,366.9809414579977,367.9387226660001,stand,left,370.95970195799964,correct,0.9681561249999504,
unstable,stand,stim_set/easy-411.png,371.00731629099755,371.99680333300057,fall,right,375.0185145409996,correct,1.0003972919985245,
unstable,stand,stim_set/hard-vcom=4-139.png,375.0623089159999,376.4052515830008,stand,left,379.4265679579985,correct,1.3538992920002784,
unstable,stand,stim_set/hard-vcom=4-22.png,379.4750635829987,380.7631787499995,fall,right,383.78468299999804,incorrect,1.2996725419980066,
unstable,stand,stim_set/easy-vcom=2-73.png,383.8276610409994,385.4133311250007,fall,right,388.43502570800047,correct,1.5970472919980239,
unstable,stand,stim_set/hard-440.png,388.47889854099776,389.7284530830002,fall,right,392.74516524999854,correct,1.2551928749999206,
unstable,stand,stim_set/hard-vcom=1-92.png,392.7930619159997,394.5303228749981,fall,right,397.5513473329993,correct,1.748235625000234,
unstable,stand,stim_set/easy-304.png,397.5969390829996,399.18049025000073,fall,right,402.2011141660005,incorrect,1.5933974159997888,
unstable,stand,stim_set/hard-555.png,402.24485954099873,403.77030987499893,stand,left,406.78618320799796,correct,1.5309053339988168,
unstable,stand,stim_set/hard-vcom=4-147.png,406.835550541,408.46177904100114,stand,left,411.47751241600054,correct,1.63176887499867,
unstable,stand,stim_set/hard-vcom=4-88.png,411.5203487910003,413.07000470799903,stand,left,416.0867929999986,correct,1.5560137909997138,
unstable,stand,stim_set/easy-542.png,416.13380729100027,417.34689399999843,fall,right,420.368315249998,correct,1.223860040998261,
unstable,stand,stim_set/hard-286.png,420.416520625,423.0048966249997,fall,right,426.0262380409986,incorrect,2.599304999999731,
unstable,NA,stim_set/easy-28.png,8.559532750001381,11.20985304200076,fall,right,14.226573874999303,correct,2.655488541997329,
unstable,NA,stim_set/hard-vcom=3-142.png,14.27301924999847,15.461967541999911,stand,left,18.482905000000756,correct,1.199410834000446,
unstable,NA,stim_set/easy-vcom=2-73.png,18.524147916999937,19.41019495799992,fall,right,22.426458541998727,correct,0.8916201249994629,
unstable,NA,stim_set/easy-586.png,22.470631874999526,23.30337183300071,fall,right,26.32466800000111,correct,0.8435752909972507,
unstable,NA,stim_set/hard-600.png,26.36078691700095,27.59496154199951,stand,left,30.616163208000216,correct,1.2448915419990954,
unstable,NA,stim_set/hard-vcom=4-88.png,30.65792879199944,32.28507408299993,stand,left,35.30113416699896,correct,1.632374291002634,
unstable,NA,stim_set/hard-440.png,35.34380516699821,36.12663741700089,fall,right,39.14315641700159,correct,0.7888250830001198,
unstable,NA,stim_set/easy-vcom=1-12.png,39.18939204200069,40.49326737500087,stand,left,43.50929149999865,correct,1.3096403749987076,
unstable,NA,stim_set/hard-vcom=4-22.png,43.55601170799855,44.24496262499815,fall,right,47.26580108299822,incorrect,0.6997176250006305,
unstable,NA,stim_set/hard-78.png,47.31042974999946,47.944880416998785,stand,left,50.966377666998596,correct,0.6454907500010449,
unstable,NA,stim_set/hard-441.png,51.007011417001195,52.08491695799967,fall,right,55.10064124999917,correct,1.0831278750010824,
unstable,NA,stim_set/easy-318.png,55.145357749999675,56.261704207998264,fall,right,59.28254545800155,correct,1.1272045419973438,
unstable,NA,stim_set/easy-304.png,59.327052874999936,60.52646900000036,fall,right,63.542720624998765,incorrect,1.2051118750023306,
unstable,NA,stim_set/easy-164.png,63.589335791999474,65.16816304199892,fall,right,68.18368658300096,correct,1.584297792000143,
unstable,NA,stim_set/hard-vcom=2-95.png,68.21994966700004,69.81160749999981,stand,left,72.83292083299966,correct,1.6023041250009555,
unstable,NA,stim_set/easy-411.png,72.87955762500133,74.93473908300075,fall,right,77.95097754200106,correct,2.061569125002279,
unstable,NA,stim_set/hard-286.png,77.99773641700085,79.36825541700091,stand,left,82.38400220800031,correct,1.3766117499981192,
unstable,NA,stim_set/hard-555.png,82.42605812499824,83.60145545799969,stand,left,86.61726954199912,correct,1.1807188330021745,
unstable,NA,stim_set/hard-14.png,86.65344395799912,87.73587670800043,stand,left,90.75731466700017,incorrect,1.093536166998092,
unstable,NA,stim_set/hard-vcom=4-139.png,90.80038287500065,92.11112962499828,stand,left,95.1324103750012,correct,1.32166524999775,
unstable,NA,stim_set/hard-280.png,95.17895908300125,96.40144429200154,stand,left,99.41739954199875,correct,1.2284188750018075,
unstable,NA,stim_set/hard-vcom=4-147.png,99.46526104200166,100.70288237500063,stand,left,103.72453374999895,correct,1.2489166249979462,
unstable,NA,stim_set/hard-vcom=1-92.png,103.77173675000085,105.26132087500082,fall,right,108.28256662499916,correct,1.5001981249988603,
unstable,NA,stim_set/easy-542.png,108.32895350000035,113.02623654199851,fall,right,116.04190891699909,correct,4.7026509159986745,
unstable,NA,stim_set/hard-vcom=4-27.png,116.08956799999942,117.57830795799964,fall,right,120.59941191699909,correct,1.4992285410007753,
unstable,fall,stim_set/hard-555.png,129.12375820799934,131.72617708300095,stand,left,134.7420422920004,correct,2.6071263330013608,
unstable,fall,stim_set/easy-586.png,134.78680316700047,136.05949504199816,fall,right,139.0754890829994,correct,1.2787765419998323,
unstable,fall,stim_set/hard-vcom=4-27.png,139.12204033300077,140.4443311670002,fall,right,143.4653996249981,correct,1.333547082998848,
unstable,fall,stim_set/easy-vcom=1-12.png,143.51240274999873,144.63441925000006,stand,left,147.65000079200036,correct,1.1275063330031116,
unstable,fall,stim_set/easy-411.png,147.69701749999876,149.06082724999942,fall,right,152.08276337500138,correct,1.3751902919975691,
unstable,fall,stim_set/hard-441.png,152.1239183329999,153.6759033749986,fall,right,156.6918263330008,correct,1.5577004160004435,
unstable,fall,stim_set/hard-14.png,156.72793133300002,157.72616062499947,stand,left,160.74311945799855,incorrect,1.0044668749978882,
unstable,fall,stim_set/hard-280.png,160.78937049999877,161.86770012499983,stand,left,164.8835959579992,correct,1.083819167000911,
unstable,fall,stim_set/easy-28.png,164.92848508300085,167.23557679200167,fall,right,170.25728245799837,correct,2.318187625001883,
unstable,fall,stim_set/hard-vcom=4-22.png,170.30531725000037,171.29434579200097,stand,left,174.31609958300032,correct,1.000069749999966,
unstable,fall,stim_set/hard-vcom=4-139.png,174.35799029199916,175.51799166699857,stand,left,178.5339285000009,correct,1.165609374998894,
unstable,fall,stim_set/hard-vcom=1-92.png,178.5803543330003,179.7272981669994,fall,right,182.7490442499984,correct,1.158520042001328,
unstable,fall,stim_set/hard-78.png,182.79422466699907,184.03600408299826,stand,left,187.05887083299967,correct,1.2532573329990555,
unstable,fall,stim_set/hard-440.png,187.10276724999858,188.77593725000042,stand,left,191.7924672500012,incorrect,1.6796627080002509,
unstable,fall,stim_set/hard-vcom=3-142.png,191.83975066700077,193.1177109579985,stand,left,196.1343466670005,correct,1.284366041996691,
unstable,fall,stim_set/hard-vcom=4-88.png,196.17631137499848,197.27599566700155,stand,left,200.2920319170007,correct,1.1054338330031896,
unstable,fall,stim_set/easy-164.png,200.3395792500014,201.78599504199883,stand,left,204.80733783300093,incorrect,1.4573599169998488,
unstable,fall,stim_set/easy-vcom=2-73.png,204.84927645800053,206.0607897080008,stand,left,209.0823980419991,incorrect,1.2226973750002799,
unstable,fall,stim_set/easy-318.png,209.12748979200114,210.55101520799872,stand,left,213.56684062500062,incorrect,1.4290197499976784,
unstable,fall,stim_set/hard-vcom=4-147.png,213.61356216700005,214.67747299999974,stand,left,217.69910466700094,correct,1.0749097500010976,
unstable,fall,stim_set/easy-304.png,217.74401862499872,218.88584416699814,stand,left,221.90735204199882,correct,1.1529877920002036,
unstable,fall,stim_set/hard-600.png,221.9441810419994,222.9926920830003,stand,left,226.00887583299846,correct,1.0539358329988318,
unstable,fall,stim_set/hard-286.png,226.05596225000045,227.05925991700133,stand,left,230.0762270419982,correct,1.0088678339998296,
unstable,fall,stim_set/easy-542.png,230.12211825000122,235.12593379199825,NA,NA,239.47108574999947,,,
unstable,fall,stim_set/hard-vcom=2-95.png,239.5080243750017,240.78418737500033,stand,left,243.80069654199906,correct,1.2821082920017943,
stable,fall,stim_set/hard-214.png,288.40844308300075,289.8840066669982,stand,left,292.900644166999,correct,1.480871499999921,
stable,fall,stim_set/hard-410.png,292.947172917,294.5008530829982,fall,right,297.5170171669997,correct,1.559423208997032,
stable,fall,stim_set/hard-vcom=3-143.png,297.5600898749981,298.70928062500025,stand,left,301.7253093750005,correct,1.1551693330002308,
stable,fall,stim_set/hard-492.png,301.77081375000125,303.07569499999954,stand,left,306.0916375000015,correct,1.3107830830012972,
stable,fall,stim_set/easy-vcom=3-121.png,306.13737987499917,307.6674298750004,fall,right,310.683309,correct,1.5354259160012589,
stable,fall,stim_set/hard-vcom=4-132.png,310.72481266699833,312.0755042919991,stand,left,315.0920471249992,correct,1.3571089159995608,
stable,fall,stim_set/hard-vcom=2-100.png,315.1355886249985,316.36903258299935,stand,left,319.3903159170004,correct,1.244697707999876,
stable,fall,stim_set/hard-vcom=1-130.png,319.4333382920013,320.6172688750012,stand,left,323.63372850000087,correct,1.1900333330013382,
stable,fall,stim_set/hard-369.png,323.67110579200016,325.03570995799964,stand,left,328.05691650000153,incorrect,1.375429499999882,
stable,fall,stim_set/hard-576.png,328.0944662080001,329.57565691700074,stand,left,332.5915539999987,correct,1.486704708000616,
stable,fall,stim_set/hard-vcom=4-23.png,332.63523783300116,333.99374304199955,stand,left,337.01499341700037,correct,1.3698352920000616,
stable,fall,stim_set/easy-344.png,337.0576926249996,338.7839046670015,stand,left,341.80065900000045,incorrect,1.7324484580021817,
stable,fall,stim_set/easy-8.png,341.8422538749983,343.39196979199914,fall,right,346.4079884169987,correct,1.5551880409984733,
stable,fall,stim_set/easy-vcom=1-87.png,346.45496195799933,347.8087382500016,stand,left,350.8246477499997,correct,1.359598916998948,
stable,fall,stim_set/hard-vcom=3-82.png,350.8708584579981,351.92532049999863,stand,left,354.9420404170014,correct,1.0609024580007826,
stable,fall,stim_set/hard-vcom=3-145.png,354.9793079170013,356.03376187499816,stand,left,359.05071254200084,incorrect,1.0610387090018776,
stable,fall,stim_set/easy-228.png,359.0883039170003,360.251755917001,fall,right,363.2732022499986,correct,1.1745352910002111,
stable,fall,stim_set/easy-239.png,363.3187985830009,364.3919740829988,fall,right,367.40778820799824,correct,1.0787131670003873,
stable,fall,stim_set/easy-195.png,367.4509522080007,369.0754807080011,fall,right,372.09124520800106,correct,1.6300400839973008,
stable,fall,stim_set/hard-599.png,372.12862479199975,373.083742625,stand,left,376.09962491699844,correct,0.961020707996795,
stable,fall,stim_set/easy-11.png,376.1434835830005,377.8773875420011,stand,left,380.89779320800153,incorrect,1.7443447090008704,
stable,fall,stim_set/easy-vcom=3-106.png,380.9418149999983,381.9021027080016,stand,left,384.9230715420017,correct,0.9709619590030343,
stable,fall,stim_set/easy-233.png,384.97115437499815,386.960020333001,stand,left,389.98150062499917,incorrect,2.000144666999404,
stable,fall,stim_set/easy-122.png,390.0252828749981,391.32503933299813,fall,right,394.3414523329993,incorrect,1.3058430410019355,
stable,fall,stim_set/hard-vcom=1-95.png,394.38453245799974,395.4587272919998,stand,left,398.4754986250009,correct,1.0799927090010897,
stable,NA,stim_set/hard-367.png,16.416297374998976,20.19170829200084,stand,left,23.207875459000206,correct,3.7796897499974875,
stable,NA,stim_set/hard-vcom=4-130.png,23.252219833997515,24.39992041699952,stand,left,27.415809709000314,incorrect,1.1536252920013794,
stable,NA,stim_set/hard-vcom=1-3.png,27.46053370899972,28.79167945899826,stand,left,31.80752691700036,correct,1.3364974159994745,
stable,NA,stim_set/easy-vcom=4-69.png,31.85457866700017,32.933172624998406,stand,left,35.94980641700022,incorrect,1.0854200409994519,
stable,NA,stim_set/easy-vcom=4-126.png,35.997983917000965,37.449895124998875,fall,right,40.46555266699943,correct,1.4578349999974307,
stable,NA,stim_set/easy-vcom=1-83.png,40.50340466700072,41.61780699999872,stand,left,44.639654041999165,correct,1.125857499999256,
stable,NA,stim_set/hard-563.png,44.68806945899996,45.95161537500098,stand,left,48.97344133400111,correct,1.274079625000013,
stable,NA,stim_set/hard-vcom=2-45.png,49.01095295900086,50.04274304199862,stand,left,53.06431941700066,incorrect,1.0433070409999345,
stable,NA,stim_set/easy-538.png,53.10657104200072,54.50811362500099,fall,right,57.5237351249998,correct,1.4068435000008321,
stable,NA,stim_set/hard-451.png,57.56993337499807,59.29983941699902,fall,right,62.3154210419998,correct,1.7350479590022587,
stable,NA,stim_set/easy-vcom=1-73.png,62.3523955419987,64.15129591699952,stand,left,67.17253554199851,correct,1.8099941250002303,
stable,NA,stim_set/easy-590.png,67.2205345839975,69.98463179199825,fall,right,73.00645199999781,correct,2.775406500000827,
stable,NA,stim_set/easy-vcom=3-142.png,73.05242329199973,74.79950279200057,stand,left,77.81675420899774,correct,1.7531071670018719,
stable,NA,stim_set/hard-570.png,77.86469237499841,80.54118216699862,stand,left,83.55746962500052,correct,2.6823062080002273,
stable,NA,stim_set/easy-63.png,83.60149658400042,85.37464370899761,fall,right,88.39098237500002,correct,1.7792302089983423,
stable,NA,stim_set/easy-20.png,88.43488549999893,90.01760483399994,fall,right,93.03881662499771,correct,1.593810416998167,
stable,NA,stim_set/easy-vcom=3-125.png,93.08715933399799,95.94118679199892,fall,right,98.95710079199853,incorrect,2.859755874997063,
stable,NA,stim_set/easy-vcom=2-3.png,99.00291975000073,100.56781937499909,stand,left,103.58905991699794,incorrect,1.575684250001359,
stable,NA,stim_set/hard-474.png,103.6324668749985,104.29304595899885,fall,right,107.3146932089985,correct,0.6712206250012969,
stable,NA,stim_set/easy-280.png,107.35826691699913,108.33286420899822,fall,right,111.34921908400065,correct,0.9801129160005075,
stable,NA,stim_set/hard-vcom=4-67.png,111.39300604199889,112.41614108399881,fall,right,115.43229995900037,correct,1.028969250000955,
stable,NA,stim_set/hard-vcom=2-16.png,115.480728833998,116.19313599999805,fall,right,119.2142246250005,incorrect,0.7232847079976636,
stable,NA,stim_set/easy-31.png,119.25974900000074,120.03288045899899,fall,right,123.04879841699949,incorrect,0.7784996670015971,
stable,NA,stim_set/hard-40.png,123.09541329199783,123.75804699999935,fall,right,126.77383420899787,incorrect,0.6683193339995341,
stable,NA,stim_set/hard-vcom=4-45.png,126.81928541700108,127.60067287499987,fall,right,130.62267266699928,correct,0.7931124999995518,
unstable,NA,stim_set/hard-345.png,174.89421583399962,176.70098658400093,fall,right,179.72216112499882,correct,1.8167310419994465,
unstable,NA,stim_set/hard-vcom=2-144.png,179.7604726669997,181.11770125000112,stand,left,184.1387321250004,incorrect,1.368134000000282,
unstable,NA,stim_set/easy-13.png,184.18711362500107,185.48414675000095,fall,right,188.5054020839998,correct,1.3081638750009006,
unstable,NA,stim_set/hard-82.png,188.55205545900026,189.65881349999836,stand,left,192.68027654199977,correct,1.1180972500005737,
unstable,NA,stim_set/hard-2.png,192.72649133400046,194.18409554199752,stand,left,197.20559974999924,correct,1.468588916999579,
unstable,NA,stim_set/hard-371.png,197.24340629200015,198.7656718750004,stand,left,201.7850847919981,correct,1.5286879160012177,
unstable,NA,stim_set/easy-77.png,201.82887104199835,203.49243216700052,fall,right,206.51327966700046,correct,1.6744602499966277,
unstable,NA,stim_set/hard-vcom=1-5.png,206.55731054200078,207.68242279200058,fall,right,210.69842970899845,incorrect,1.1308711669989862,
unstable,NA,stim_set/hard-556.png,210.74099179199766,211.99092791699877,fall,right,215.00718795899957,incorrect,1.255391916998633,
unstable,NA,stim_set/hard-388.png,215.04521479200048,216.324124458999,stand,left,219.34049804199822,correct,1.2851312080019852,
unstable,NA,stim_set/hard-382.png,219.37772824999774,220.55742404199918,stand,left,223.57390937499804,correct,1.186144040999352,
unstable,NA,stim_set/easy-vcom=1-145.png,223.6198168339979,228.62391624999873,NA,NA,233.01492199999848,,,
unstable,NA,stim_set/easy-vcom=3-136.png,233.05673816700073,234.14221341699886,stand,left,237.16409225000098,correct,1.0969432500023686,
unstable,NA,stim_set/hard-vcom=2-20.png,237.21149320900076,238.60028749999765,stand,left,241.62255808400005,correct,1.4002145410013327,
unstable,NA,stim_set/hard-21.png,241.66557487499813,243.1425692499979,stand,left,246.16414045900092,correct,1.487680124999315,
unstable,NA,stim_set/hard-432.png,246.2117372089997,247.79070720899836,stand,left,250.80686708400026,incorrect,1.584746250002354,
unstable,NA,stim_set/easy-vcom=4-19.png,250.85454299999765,252.23223062499892,stand,left,255.2487476669994,incorrect,1.3840585839971027,
unstable,NA,stim_set/hard-590.png,255.29460612500043,256.8840040840005,stand,left,259.9052551249988,incorrect,1.5995438330028264,
unstable,NA,stim_set/hard-439.png,259.94971387499754,261.423682583998,fall,right,264.4398408749985,correct,1.4799579999998969,
unstable,NA,stim_set/easy-vcom=4-4.png,264.4840106669981,265.83202054199865,fall,right,268.8482281249999,correct,1.3539084580006602,
unstable,NA,stim_set/easy-121.png,268.8965842920006,270.22389974999896,fall,right,273.2397771670003,incorrect,1.3329311659981613,
unstable,NA,stim_set/hard-271.png,273.2867977499991,274.6906048339988,stand,left,277.7068451669984,correct,1.4096739580018038,
unstable,NA,stim_set/hard-442.png,277.7544114589982,280.067131374999,stand,left,283.08840145900103,correct,2.323864792000677,
unstable,NA,stim_set/hard-552.png,283.1344519589984,284.73214583400113,stand,left,287.74898329200005,correct,1.6039994999991904,
unstable,NA,stim_set/hard-vcom=3-100.png,287.79283012499945,289.56566337500044,stand,left,292.5818748339989,incorrect,1.7787127910014533,
stable,NA,stim_set/easy-344.png,299.9722996249984,301.69044945899805,fall,right,304.7070281669985,correct,1.7231462499985355,
stable,NA,stim_set/hard-576.png,304.74331204199916,305.7407243339985,stand,left,308.757359291998,correct,1.003934249998565,
stable,NA,stim_set/hard-vcom=3-82.png,308.80223012499846,310.0069070419995,stand,left,313.02308224999797,correct,1.2104993329994613,
stable,NA,stim_set/hard-vcom=1-95.png,313.06495862500014,314.2251566249979,stand,left,317.2472725419975,correct,1.1715240419980546,
stable,NA,stim_set/hard-vcom=3-145.png,317.28356616699966,319.03227779200097,fall,right,322.0484141249981,correct,1.754064542001288,
stable,NA,stim_set/hard-369.png,322.08480787499866,323.74211387499963,fall,right,326.7633765419996,correct,1.6682946249966335,
stable,NA,stim_set/easy-vcom=3-121.png,326.80822383399936,327.29220641699794,stand,left,330.3132406250006,incorrect,0.4946749579976313,
stable,NA,stim_set/hard-vcom=4-132.png,330.35379699999976,330.89250916699893,fall,right,333.9128992500009,incorrect,0.5487294580016169,
stable,NA,stim_set/easy-195.png,333.9549685839993,335.2821252499998,fall,right,338.2983435419992,correct,1.3327260420010134,
stable,NA,stim_set/easy-233.png,338.3447774999986,339.7571605839985,stand,left,342.77312158399945,incorrect,1.4182273750011518,
stable,NA,stim_set/easy-vcom=3-106.png,342.815183333998,344.2903980839983,stand,left,347.3069739169987,correct,1.4810804160006228,
stable,NA,stim_set/easy-8.png,347.34758299999885,348.9736903339981,stand,left,351.990442667,incorrect,1.6318344159990374,
stable,NA,stim_set/easy-122.png,352.0334389999989,353.46688637499756,stand,left,356.4884450419995,correct,1.4447149579973484,
stable,NA,stim_set/hard-214.png,356.53476854199835,357.9425657920001,stand,left,360.96327024999846,correct,1.4176562920001743,
stable,NA,stim_set/hard-492.png,361.00682724999933,362.2820817920001,stand,left,365.2980056669985,correct,1.2808301669974753,
stable,NA,stim_set/hard-vcom=1-130.png,365.33961929200086,366.72544899999775,stand,left,369.74687616699885,correct,1.396729249998316,
stable,NA,stim_set/easy-239.png,369.7909439590003,371.34863533399766,fall,right,374.36501362499985,correct,1.56348749999961,
stable,NA,stim_set/hard-410.png,374.4108885839996,376.05060941699776,fall,right,379.0721403339994,correct,1.650415542000701,
stable,NA,stim_set/hard-vcom=3-143.png,379.11370808399806,380.44037837499855,stand,left,383.45654133399876,correct,1.3322805839998182,
stable,NA,stim_set/easy-11.png,383.49910699999964,384.748656374999,fall,right,387.7648978750003,correct,1.2551440419993014,
stable,NA,stim_set/hard-vcom=4-23.png,387.8073097089982,389.00673166699926,fall,right,392.0229928749977,incorrect,1.205019834000268,
stable,NA,stim_set/hard-vcom=2-100.png,392.06609983399903,393.2403799169988,stand,left,396.2560182499983,correct,1.1800258750008652,
stable,NA,stim_set/hard-599.png,396.2921831249987,397.59049112499997,stand,left,400.6065329589983,correct,1.3039257919990632,
stable,NA,stim_set/easy-228.png,400.6426739999988,401.96538095899814,fall,right,404.98115045899976,correct,1.32854991700151,
stable,NA,stim_set/easy-vcom=1-87.png,405.0266953749997,406.22369366699786,stand,left,409.24292983399937,correct,1.203299958997377,
