batch_type,motivation,towers,trial_start,stim_on,choice,key,trial_end,acc,rt,score
unstable,stand,stim_set/hard-441.png,6.307712750000064,11.321284917001321,NA,NA,15.78519979200064,,,220.0
unstable,stand,stim_set/easy-411.png,15.834029375000682,17.41028120899864,fall,right,20.429572459001065,correct,1.582595500000025,
unstable,stand,stim_set/hard-vcom=2-95.png,20.46734483399996,22.018846458999178,stand,left,25.035156624999217,correct,1.5573506250002538,
unstable,stand,stim_set/easy-304.png,25.081703625000955,27.635565459000645,fall,right,30.652389958999265,incorrect,2.560321582997858,
unstable,stand,stim_set/hard-14.png,30.689984833999915,33.69350037500044,fall,right,36.71017616700192,correct,3.0094467499984603,
unstable,stand,stim_set/easy-318.png,36.75599708400114,38.98556004200145,fall,right,42.00198512499992,correct,2.2354587909976544,
unstable,stand,stim_set/hard-vcom=3-142.png,42.04984412500198,46.58711883399883,stand,left,49.60858195900073,correct,4.548329125002056,
unstable,stand,stim_set/hard-vcom=4-139.png,49.652000709000276,51.93738016700081,stand,left,54.95852783400187,correct,2.2960253750025004,
unstable,stand,stim_set/easy-542.png,55.005837833999976,56.185574167000595,fall,right,59.201546625001356,correct,1.1855373329999566,
unstable,stand,stim_set/easy-28.png,59.24731612500182,60.77875362499981,fall,right,63.79997729200113,correct,1.5425168329966255,
unstable,stand,stim_set/easy-vcom=1-12.png,63.847515792000195,65.78726729200207,stand,left,68.80837512500148,correct,1.9506771250016754,
unstable,stand,stim_set/hard-vcom=4-88.png,68.85123708399988,70.90237799999886,stand,left,73.91832820900163,correct,2.0568961249991844,
unstable,stand,stim_set/hard-vcom=4-147.png,73.96680454200032,75.70433783399858,stand,left,78.7249049589991,correct,1.7481845830006932,
unstable,stand,stim_set/hard-vcom=4-27.png,78.77353583399963,81.5272724589995,stand,left,84.54401495899947,incorrect,2.7596515839977656,
unstable,stand,stim_set/easy-vcom=2-73.png,84.58685816700017,86.48554037500071,fall,right,89.5016451670017,correct,1.9044214999994438,
unstable,stand,stim_set/hard-286.png,89.55020954200154,94.56241399999999,NA,NA,98.69636100000207,,,
unstable,stand,stim_set/hard-280.png,98.7442555000016,100.79355774999931,stand,left,103.81032687500192,correct,2.0558184170004097,
unstable,stand,stim_set/hard-555.png,103.85401904199898,104.99558183399859,stand,left,108.0168933749992,correct,1.1528406249999534,
unstable,stand,stim_set/hard-vcom=1-92.png,108.06514458400125,109.19377204199918,fall,right,112.21044654200159,correct,1.1347692500021367,
unstable,stand,stim_set/hard-vcom=4-22.png,112.25890354199873,115.55347362500106,stand,left,118.57469137500084,correct,3.305985832997976,
unstable,stand,stim_set/easy-164.png,118.62230574999921,119.65186795900081,fall,right,122.66816241700144,correct,1.0356900000006135,
unstable,stand,stim_set/easy-586.png,122.7144154589987,124.85412283400001,fall,right,127.87491170900103,correct,2.150227541998902,
unstable,stand,stim_set/hard-440.png,127.91917591699894,128.97885441700055,fall,right,132.00056766700072,correct,1.0705421669990756,
unstable,stand,stim_set/hard-78.png,132.047331709,134.93756462500096,fall,right,137.95818516700092,incorrect,2.900734332997672,
unstable,stand,stim_set/hard-600.png,137.99578454199946,140.54379341700042,stand,left,143.56062962500073,correct,2.5545757500003674,
unstable,NA,stim_set/hard-vcom=4-147.png,151.77989024999988,155.40188399999897,stand,left,158.418057709001,correct,3.626454207998904,
unstable,NA,stim_set/easy-vcom=2-73.png,158.45936995900047,160.7285514590003,fall,right,163.75108316700062,correct,2.2807913750002626,
unstable,NA,stim_set/hard-78.png,163.7958711249994,167.2020752919998,stand,left,170.21843583400187,correct,3.412222582999675,
unstable,NA,stim_set/easy-586.png,170.2626662920011,173.2354977089999,fall,right,176.25193516700165,correct,2.978374416998122,
unstable,NA,stim_set/hard-vcom=4-88.png,176.2934971249997,179.04380579200006,stand,left,182.06006999999954,correct,2.7558702079986688,
unstable,NA,stim_set/easy-542.png,182.1059070420015,185.2353415840007,fall,right,188.25180787499994,correct,3.1353037920016504,
unstable,NA,stim_set/hard-286.png,188.29886145899945,190.47702879200006,stand,left,193.49338100000023,correct,2.1842610000021523,
unstable,NA,stim_set/easy-304.png,193.53739549999955,195.49573395900006,fall,right,198.5164715840001,incorrect,1.9683610829997633,
unstable,NA,stim_set/hard-vcom=4-27.png,198.56336204200124,201.49514320900198,stand,left,204.51649774999896,incorrect,2.942810708002071,
unstable,NA,stim_set/hard-440.png,204.55963237499964,207.66045712499908,fall,right,210.67670012500093,correct,3.1063904170005117,
unstable,NA,stim_set/easy-vcom=1-12.png,210.72239470899876,214.43734804199994,stand,left,217.4585606670007,correct,3.7256682080005703,
unstable,NA,stim_set/hard-441.png,217.4989946249989,221.61171566700068,fall,right,224.63332012500177,correct,4.123862958000245,
unstable,NA,stim_set/hard-vcom=1-92.png,224.67992608400164,226.16198791699935,fall,right,229.1832200839999,correct,1.4928412919980474,
unstable,NA,stim_set/hard-14.png,229.21935141699942,232.46874749999915,fall,right,235.48480995900172,correct,3.2549541249973117,
unstable,NA,stim_set/hard-280.png,235.53086516700205,236.970430166999,stand,left,239.99179645899858,correct,1.4502592499993625,
unstable,NA,stim_set/easy-411.png,240.03831162500137,241.96202116700078,fall,right,244.98337724999874,correct,1.9344405830015603,
unstable,NA,stim_set/easy-164.png,245.0298318339992,250.0371640839985,NA,NA,253.83211345900054,,,
unstable,NA,stim_set/hard-600.png,253.8685616670009,255.1687394590008,stand,left,258.1842171249991,correct,1.3058123749979131,
unstable,NA,stim_set/hard-vcom=4-22.png,258.230697125,261.31035854199945,stand,left,264.3266365419986,correct,3.086079290998896,
unstable,NA,stim_set/hard-vcom=2-95.png,264.36312579199875,267.6351585000011,fall,right,270.6515039590013,incorrect,3.2783628750003118,
unstable,NA,stim_set/hard-555.png,270.69358775,275.7037179170002,NA,NA,279.40733645900036,,,
unstable,NA,stim_set/hard-vcom=4-139.png,279.4498518750006,281.0376583750003,stand,left,284.0580990000017,correct,1.5981085829989752,
unstable,NA,stim_set/easy-318.png,284.1027920839988,286.0770385420001,fall,right,289.093460125001,correct,1.9809651670002495,
unstable,NA,stim_set/easy-28.png,289.1375993340007,290.893802958999,fall,right,293.9107396670006,correct,1.7621631660003914,
unstable,NA,stim_set/hard-vcom=3-142.png,293.95740870900045,295.84558858400123,stand,left,298.8662255419986,correct,1.8984869589985465,
unstable,stand,stim_set/easy-164.png,343.6594724589995,346.4206020419988,fall,right,349.44172220900145,correct,2.7709839590024785,
unstable,stand,stim_set/hard-280.png,349.4879482920005,353.3102442499985,stand,left,356.3265724590019,correct,3.8283737499987183,
unstable,stand,stim_set/easy-586.png,356.37081854200005,357.2286062089988,fall,right,360.2496642920014,correct,0.8688750420005817,
unstable,stand,stim_set/easy-318.png,360.2942905000018,361.1269667500019,fall,right,364.14307025000016,correct,0.8388084170001093,
unstable,stand,stim_set/easy-411.png,364.18958629199915,365.10199433399976,fall,right,368.1177248749991,correct,0.9179379170018365,
unstable,stand,stim_set/easy-28.png,368.1617858339996,369.2936220420015,fall,right,372.3102150420018,correct,1.137919332999445,
unstable,stand,stim_set/hard-600.png,372.34618174999923,377.3535247920008,NA,NA,381.6565350000019,,,
unstable,stand,stim_set/hard-vcom=3-142.png,381.7034294590012,385.36157658400043,fall,right,388.383053542002,incorrect,3.6692685000016354,
unstable,stand,stim_set/hard-440.png,388.4258102499989,389.3353909590005,fall,right,392.3513868750015,correct,0.9153495419996034,
unstable,stand,stim_set/hard-286.png,392.3980775839991,395.26167470899964,fall,right,398.28321529200184,incorrect,2.8748529160002363,
unstable,stand,stim_set/hard-vcom=4-22.png,398.33006520900017,401.7099400840016,stand,left,404.72714983400147,correct,3.386709250000422,
unstable,stand,stim_set/hard-441.png,404.76732720899963,407.4434977089986,stand,left,410.45963804200073,incorrect,2.6823368340010347,
unstable,stand,stim_set/hard-555.png,410.5023609589989,412.12030433399923,stand,left,415.1412804169995,correct,1.6285901660012314,
unstable,stand,stim_set/easy-304.png,415.1858608750008,416.1951881249988,fall,right,419.21638429200175,incorrect,1.0199272079989896,
unstable,stand,stim_set/hard-vcom=4-88.png,419.2577855419986,421.5017950420006,stand,left,424.5183364170007,correct,2.249953667000227,
unstable,stand,stim_set/easy-542.png,424.5639622500021,425.6685370000014,fall,right,428.6843464170015,correct,1.1101947909992305,
unstable,stand,stim_set/hard-78.png,428.72908004200144,432.2370225420018,fall,right,435.2583787090007,incorrect,3.518804208997608,
unstable,stand,stim_set/hard-vcom=4-27.png,435.3052858750016,439.68505070899846,fall,right,442.7010056250001,correct,4.385482500001672,
unstable,stand,stim_set/hard-vcom=4-147.png,442.7480837920011,447.41122683399954,stand,left,450.4325698339999,correct,4.674173665996932,
unstable,stand,stim_set/easy-vcom=2-73.png,450.4739991669994,452.0768305419988,fall,right,455.09336262500074,correct,1.6088623750001716,
unstable,stand,stim_set/hard-14.png,455.12974137499987,458.8267677090007,stand,left,461.84355725000205,incorrect,3.703870082998037,
unstable,stand,stim_set/hard-vcom=4-139.png,461.8857044590004,466.89511795900034,NA,NA,471.01502954199896,,,
unstable,stand,stim_set/hard-vcom=1-92.png,471.0618302920011,472.9600342500016,fall,right,475.9763766670003,correct,1.9043612919995212,
unstable,stand,stim_set/easy-vcom=1-12.png,476.02234554200186,479.06187016699914,stand,left,482.0829782920009,correct,3.050782499998604,
unstable,stand,stim_set/hard-vcom=2-95.png,482.1191252089993,486.88769445900107,fall,right,489.908065874999,incorrect,4.778498625000793,
stable,stand,stim_set/hard-vcom=4-130.png,5.762492375000875,10.061222708998685,fall,right,13.076723416997993,correct,4.303233333001117,
stable,stand,stim_set/easy-538.png,13.118990999999369,14.129908709001029,fall,right,17.151253749998432,correct,1.0219396249995043,
stable,stand,stim_set/easy-63.png,17.19454874999792,18.14451341699896,fall,right,21.160708250001335,correct,0.9561906250019092,
stable,stand,stim_set/easy-vcom=4-126.png,21.208794709000358,22.420720416997938,fall,right,25.442597041997942,correct,1.2229513329984911,
stable,stand,stim_set/easy-280.png,25.485951792001288,26.386085750000348,fall,right,29.40244724999866,correct,0.9062340829987079,
stable,stand,stim_set/easy-vcom=4-69.png,29.44992766699943,31.07768275000126,stand,left,34.09381512500113,incorrect,1.6338603330004844,
stable,stand,stim_set/easy-vcom=1-73.png,34.131259917001444,35.770711041997856,stand,left,38.792163583999354,correct,1.6507332090004638,
stable,stand,stim_set/hard-474.png,38.835441291997995,40.47106270899894,fall,right,43.492281541999546,correct,1.6465552500012564,
stable,stand,stim_set/easy-vcom=3-142.png,43.538236166998104,45.5358934169999,stand,left,48.552300667000964,correct,2.0038552080004592,
stable,stand,stim_set/easy-vcom=1-83.png,48.590123875001154,50.23741254199922,stand,left,53.259240374998626,correct,1.6586602089992084,
stable,stand,stim_set/hard-vcom=4-45.png,53.30480770899885,55.21096570900045,fall,right,58.2269848750002,correct,1.911962707999919,
stable,stand,stim_set/hard-vcom=2-45.png,58.264638749998994,61.887494499998866,stand,left,64.90898920899781,incorrect,3.63423899999907,
stable,stand,stim_set/hard-563.png,64.9574995840012,68.81076799999937,stand,left,71.82695945899832,correct,3.8594914579989563,
stable,stand,stim_set/hard-367.png,71.8708410420004,76.87939179200112,NA,NA,80.79295241699947,,,
stable,stand,stim_set/hard-451.png,80.8392515839987,82.52086420900014,fall,right,85.54245241700119,correct,1.6928788330005773,
stable,stand,stim_set/easy-31.png,85.58843762499964,87.44634870899972,fall,right,90.46680979200028,incorrect,1.868537375001324,
stable,stand,stim_set/easy-vcom=2-3.png,90.51400149999972,93.92913675000091,stand,left,96.95038470899817,incorrect,3.4258711250004126,
stable,stand,stim_set/easy-20.png,96.99408112499805,98.62903308399837,fall,right,101.65040212500026,correct,1.646080875001644,
stable,stand,stim_set/hard-vcom=2-16.png,101.69861350000065,105.13602025,stand,left,108.15240687500045,correct,3.443435583001701,
stable,stand,stim_set/easy-vcom=3-125.png,108.20077316699826,110.93726708399845,fall,right,113.95900133399846,incorrect,2.7475992500003485,
stable,stand,stim_set/hard-40.png,114.00564074999784,115.61097370900097,stand,left,118.62697716700131,correct,1.6109362919996784,
stable,stand,stim_set/hard-vcom=1-3.png,118.67123654199895,120.2275511250009,stand,left,123.24361700000009,correct,1.5619778750005935,
stable,stand,stim_set/easy-590.png,123.29239562499788,124.7442704999994,fall,right,127.76003616700109,correct,1.457345708997309,
stable,stand,stim_set/hard-vcom=4-67.png,127.8036237089982,131.0775065839989,fall,right,134.09342012499837,correct,3.2797559589998855,
stable,stand,stim_set/hard-570.png,134.14134312500028,137.90399216700098,stand,left,140.92589962499915,correct,3.7733474589986145,
stable,fall,stim_set/easy-vcom=1-87.png,148.6844831669987,152.16104783400078,stand,left,155.17709616700085,correct,3.4810395419990527,
stable,fall,stim_set/hard-vcom=1-130.png,155.220353875,158.35437020899917,fall,right,161.37554958400142,incorrect,3.144951292000769,
stable,fall,stim_set/hard-410.png,161.4226884589989,163.15259049999804,fall,right,166.16868704199806,correct,1.735612582997419,
stable,fall,stim_set/hard-492.png,166.21357875000103,169.12940070900004,stand,left,172.15092958400055,correct,2.9265192089987977,
stable,fall,stim_set/hard-576.png,172.18818512500002,173.7958983339995,stand,left,176.8174038750003,correct,1.618908749998809,
stable,fall,stim_set/hard-599.png,176.85477787499985,179.55248279199805,stand,left,182.56887641700087,correct,2.7035910840022552,
stable,fall,stim_set/easy-228.png,182.6064065419996,183.79587270900083,fall,right,186.81704854200143,correct,1.2006960840008105,
stable,fall,stim_set/easy-195.png,186.8605712919998,188.320696458999,fall,right,191.34209287499834,correct,1.4710267499976908,
stable,fall,stim_set/hard-214.png,191.38953224999932,193.66901637499905,stand,left,196.6854442090007,correct,2.2855965830021887,
stable,fall,stim_set/hard-vcom=3-143.png,196.72878833399955,200.46264404199974,stand,left,203.4837680419987,correct,3.7441747919983754,
stable,fall,stim_set/easy-233.png,203.53149083400058,205.68573583399848,fall,right,208.70462245900126,correct,2.1606207080003514,
stable,fall,stim_set/easy-vcom=3-106.png,208.74817658399843,210.17748762499832,stand,left,213.193894,correct,1.4353919999994105,
stable,fall,stim_set/hard-vcom=4-23.png,213.2372885420009,214.47922829199888,stand,left,217.5003648339989,correct,1.2525791250009206,
stable,fall,stim_set/easy-344.png,217.54305849999946,218.64419866699973,fall,right,221.66016387499985,correct,1.1065051250006945,
stable,fall,stim_set/hard-vcom=3-82.png,221.70580883399816,222.78579433399864,stand,left,225.804761667001,correct,1.0867748339987884,
stable,fall,stim_set/easy-122.png,225.84869245899972,226.7623914169999,fall,right,229.78368745899934,incorrect,0.9245448749970819,
stable,fall,stim_set/hard-vcom=1-95.png,229.82694162500047,232.5129925000001,stand,left,235.53357162500106,correct,2.696550374999788,
stable,fall,stim_set/hard-vcom=3-145.png,235.5711937499982,236.6790581669993,stand,left,239.7007353750014,incorrect,1.1186128329973144,
stable,fall,stim_set/hard-vcom=2-100.png,239.74518999999782,241.3376409170014,stand,left,244.35837433399865,correct,1.6032059999997728,
stable,fall,stim_set/easy-11.png,244.40167054199992,245.92723950000072,fall,right,248.94312720900052,correct,1.53115470800185,
stable,fall,stim_set/hard-369.png,248.9805919999999,252.837551583998,fall,right,255.85881266700017,correct,3.8677413330005948,
stable,fall,stim_set/easy-vcom=3-121.png,255.905184291998,258.5627499170005,fall,right,261.5837572089986,correct,2.6681625839992194,
stable,fall,stim_set/easy-239.png,261.6293922500008,263.4124628749996,fall,right,266.433646958998,correct,1.7939573750009004,
stable,fall,stim_set/easy-8.png,266.475936584,267.5025021670008,fall,right,270.5186199589989,correct,1.0324329579998448,
stable,fall,stim_set/hard-vcom=4-132.png,270.5602509169985,274.4857362500006,stand,left,277.5018653340012,correct,3.930994083002588,
unstable,fall,stim_set/hard-vcom=3-142.png,283.81244266700014,285.38577412499944,stand,left,288.4027567919984,correct,1.5787456660000316,
unstable,fall,stim_set/easy-vcom=1-12.png,288.45036458400136,290.0630431669997,stand,left,293.0838563340003,correct,1.6232496670018008,
unstable,fall,stim_set/hard-78.png,293.12912195899844,294.1026420419985,stand,left,297.11853295900073,correct,0.9791715419996763,
unstable,fall,stim_set/hard-vcom=4-22.png,297.1670379169991,299.02714545900017,stand,left,302.0437466250005,correct,1.8663682080004946,
unstable,fall,stim_set/hard-555.png,302.0875153749985,305.35436095899786,stand,left,308.37539950000064,correct,3.276978917001543,
unstable,fall,stim_set/easy-28.png,308.4215528749992,309.8690537500006,fall,right,312.88542695900105,correct,1.453419416997349,
unstable,fall,stim_set/easy-586.png,312.9308645839992,313.8103820840006,fall,right,316.82682266700067,correct,0.8851777499985474,
unstable,fall,stim_set/hard-vcom=4-27.png,316.87507870899935,318.7374755419987,stand,left,321.7591955839998,incorrect,1.8734552499990968,
unstable,fall,stim_set/hard-441.png,321.8010327919983,323.3874154590012,stand,left,326.4084045839991,incorrect,1.59717579199787,
unstable,fall,stim_set/easy-542.png,326.4557453339985,329.7861088749996,fall,right,332.8020522919978,correct,3.336119999999937,
unstable,fall,stim_set/easy-318.png,332.84757312500005,334.50250562499787,fall,right,337.51827449999837,correct,1.6600835419994837,
unstable,fall,stim_set/hard-vcom=4-88.png,337.56082433399934,338.91070145900085,stand,left,341.92687054199996,correct,1.3558761659987795,
unstable,fall,stim_set/hard-vcom=1-92.png,341.9746706670012,344.8774900839999,fall,right,347.8936244590004,correct,2.908361709000019,
unstable,fall,stim_set/hard-440.png,347.9375730419997,349.06917958399936,fall,right,352.0849500840013,correct,1.1376629999977013,
unstable,fall,stim_set/easy-304.png,352.130619708998,353.5774557920013,fall,right,356.59382366700083,incorrect,1.4529105000001437,
unstable,fall,stim_set/easy-164.png,356.64177691700024,361.6545194169994,NA,NA,371.31428979200064,,,
unstable,fall,stim_set/hard-14.png,371.35179029199935,373.65254749999804,stand,left,376.6684959999984,incorrect,2.3070358330005547,
unstable,fall,stim_set/hard-286.png,376.7165723750004,377.96904533400084,stand,left,380.9881715419979,correct,1.2590767920009966,
unstable,fall,stim_set/hard-280.png,381.03552895900066,382.1209769999987,stand,left,385.141694083999,correct,1.0959535830006644,
unstable,fall,stim_set/hard-vcom=4-147.png,385.18991570900107,386.0521011669989,stand,left,389.0686945839989,correct,0.8684662500018021,
unstable,fall,stim_set/easy-411.png,389.11630074999994,390.0797795840008,fall,right,393.1000503340001,correct,0.9736382080009207,
unstable,fall,stim_set/hard-vcom=4-139.png,393.14350933400056,393.85420720899856,stand,left,396.8752318750012,correct,0.72102495800209,
unstable,fall,stim_set/hard-600.png,396.9129753749985,398.1956304589985,stand,left,401.2166555420008,correct,1.2935871250010678,
unstable,fall,stim_set/easy-vcom=2-73.png,401.25948962500115,402.370932834001,fall,right,405.3920779170003,correct,1.1220177079994755,
unstable,fall,stim_set/hard-vcom=2-95.png,405.42959370899916,406.7627582919995,stand,left,409.78311654199933,correct,1.3435777499980759,
unstable,fall,stim_set/hard-vcom=3-142.png,1.1510694159987906,2.5084811249980703,stand,left,5.5301452499988955,correct,1.3686749170010444,
unstable,fall,stim_set/hard-440.png,5.572913749998406,6.30882075000045,fall,right,9.329814582997642,correct,0.7463182080027764,
unstable,fall,stim_set/easy-164.png,9.37623820799854,11.733608790997096,fall,right,14.754440957996849,correct,2.367876542000886,
unstable,fall,stim_set/hard-vcom=4-27.png,14.801099665997754,15.80884558300022,stand,left,18.830255790999217,incorrect,1.0183416660001967,
unstable,fall,stim_set/easy-586.png,18.874109874999704,21.198184540997318,fall,right,24.214510333000362,correct,2.330081000000064,
unstable,fall,stim_set/hard-555.png,24.256744540998625,25.36501262499951,stand,left,28.384337415998743,correct,1.1146811660000822,
unstable,fall,stim_set/hard-441.png,28.424544499997864,30.083737249999103,stand,left,33.104511874997115,incorrect,1.6695356249983888,
unstable,fall,stim_set/hard-78.png,33.14889499999845,34.283736416000465,stand,left,37.3046636250001,correct,1.1454272090013546,
unstable,fall,stim_set/easy-28.png,37.348976457997196,39.08357737500046,fall,right,42.10511566599962,correct,1.7454662079981063,
unstable,fall,stim_set/easy-411.png,42.15125295799953,47.00863795799887,stand,left,50.029431165999995,incorrect,4.867557499997929,
unstable,fall,stim_set/easy-vcom=1-12.png,50.07517679099692,51.72341254099956,stand,left,54.740213875000336,correct,1.6543663749980624,
unstable,fall,stim_set/hard-14.png,54.77660258299875,59.7817291249994,NA,NA,63.714969207998365,,,
unstable,fall,stim_set/easy-542.png,63.76058816599834,64.7651781659988,fall,right,67.78118154099866,correct,1.0102357920004579,
unstable,fall,stim_set/hard-vcom=4-22.png,67.82786512500024,68.86517749999985,stand,left,71.88179979099732,correct,1.04318795799918,
unstable,fall,stim_set/hard-280.png,71.92779266599973,73.11677037499976,stand,left,76.13795841599858,correct,1.1996942500009027,
unstable,fall,stim_set/hard-vcom=4-88.png,76.17979858299805,77.25009624999802,stand,left,80.27160716599974,correct,1.0810861659992952,
unstable,fall,stim_set/hard-286.png,80.31836379099695,81.18149079099749,stand,left,84.19895166599963,correct,0.8697676670017245,
unstable,fall,stim_set/hard-vcom=4-139.png,84.24102624999796,86.30049012499876,stand,left,89.32152562499687,correct,2.0700470829979167,
unstable,fall,stim_set/easy-304.png,89.36546074999933,91.47553191599945,fall,right,94.49586566599828,incorrect,2.1202758330000506,
unstable,fall,stim_set/easy-vcom=2-73.png,94.53705516599803,98.49023274999854,fall,right,101.50614654099991,correct,3.9588929589990585,
unstable,fall,stim_set/hard-600.png,101.5421102500004,102.94014891599727,stand,left,105.95614770799875,correct,1.4036470419996476,
unstable,fall,stim_set/hard-vcom=4-147.png,106.00281341599839,106.46665295799903,stand,left,109.48825233299794,correct,0.47538929199799895,
unstable,fall,stim_set/hard-vcom=2-95.png,109.52441370799716,110.87341233299958,stand,left,113.8891727079972,correct,1.3545009999979811,
unstable,fall,stim_set/easy-318.png,113.93382416599707,117.27522029099782,fall,right,120.29649324999991,correct,3.3518573330002255,
unstable,fall,stim_set/hard-vcom=1-92.png,120.34299995800029,122.4651810409996,fall,right,125.48105483299878,correct,2.1277709169989976,
unstable,NA,stim_set/hard-vcom=2-144.png,130.61370095799793,131.46705279099842,fall,right,134.48760808299994,correct,0.8628484159999061,
unstable,NA,stim_set/hard-382.png,134.52580370799842,137.37344858299912,stand,left,140.38985608299845,correct,2.853371041997889,
unstable,NA,stim_set/easy-13.png,140.4378477499995,145.44978866599922,NA,NA,153.90774583299935,,,
unstable,NA,stim_set/hard-vcom=2-20.png,153.95526929100015,155.19157149999955,stand,left,158.2126046659978,correct,1.2471357920003356,
unstable,NA,stim_set/hard-371.png,158.25006120800026,159.3234488329981,fall,right,162.3398958329999,incorrect,1.079379250000784,
unstable,NA,stim_set/easy-vcom=4-4.png,162.38351912500002,165.80645045799974,fall,right,168.82311095799741,correct,3.4286602920001314,
unstable,NA,stim_set/hard-271.png,168.8696488329988,170.12310208299823,stand,left,173.1399817499987,correct,1.2594689580000704,
unstable,NA,stim_set/easy-vcom=3-136.png,173.18170166599884,178.1916664579985,NA,NA,186.60418470799777,,,
unstable,NA,stim_set/hard-vcom=1-5.png,186.64782854099758,187.92324291600016,stand,left,190.94013733300017,correct,1.2816508329997305,
unstable,NA,stim_set/easy-121.png,190.9882513329976,193.1147429579978,fall,right,196.13157316599973,incorrect,2.132744750000711,
unstable,NA,stim_set/hard-552.png,196.17779058299857,201.18165083299755,NA,NA,206.49279745799868,,,
unstable,NA,stim_set/hard-82.png,206.53961774999698,209.48997745799716,stand,left,212.50657612499708,correct,2.956575874999544,
unstable,NA,stim_set/hard-345.png,212.54989445799947,214.09825837499739,stand,left,217.11459579099756,incorrect,1.5543685410011676,
unstable,NA,stim_set/hard-432.png,217.16221470799792,218.2148207499995,fall,right,221.23109808299705,correct,1.058741208002175,
unstable,NA,stim_set/hard-vcom=3-100.png,221.2749808749977,223.7814386659993,stand,left,226.79830504100028,incorrect,2.5130055420013377,
unstable,NA,stim_set/hard-439.png,226.84245583299708,231.183455082999,fall,right,234.2047187499993,correct,4.352098499999556,
unstable,NA,stim_set/easy-vcom=4-19.png,234.25261616599892,239.26496783299808,NA,NA,257.0680219999995,,,
unstable,NA,stim_set/hard-590.png,257.11498500000016,260.01494983299926,fall,right,263.0314922910002,correct,2.906375708000269,
unstable,NA,stim_set/easy-vcom=1-145.png,263.07727499999964,268.0814667909981,NA,NA,285.54896837499837,,,
unstable,NA,stim_set/hard-21.png,285.5920197079977,287.12526358299874,stand,left,290.14619758299887,correct,1.5438652910015662,
unstable,NA,stim_set/hard-442.png,290.1938375409991,292.60651833299926,fall,right,295.6228565409983,incorrect,2.4186186250008177,
unstable,NA,stim_set/easy-77.png,295.6667240829993,300.674786915999,NA,NA,314.4760502909994,,,
unstable,NA,stim_set/hard-2.png,314.5223383329976,316.4581371659988,stand,left,319.47926758299946,correct,1.9472605000009935,
unstable,NA,stim_set/hard-556.png,319.52184883299924,324.5328945000001,NA,NA,357.05210545799855,,,
unstable,NA,stim_set/hard-388.png,357.08997712499695,359.4646814999978,stand,left,362.4811767499996,correct,2.3811781670010532,
stable,stand,stim_set/hard-vcom=1-130.png,366.31440658299834,368.416490874999,stand,left,371.43766316599795,correct,2.1125526249998074,
stable,stand,stim_set/easy-233.png,371.4857307079983,372.4745109579999,fall,right,375.4955789579981,correct,0.9997525830003724,
stable,stand,stim_set/easy-239.png,375.54124133299774,376.41456237499733,fall,right,379.43089150000014,correct,0.8791940840019379,
stable,stand,stim_set/hard-492.png,379.47616299999936,383.00621766599943,stand,left,386.022711374997,correct,3.536113166999712,
stable,stand,stim_set/easy-8.png,386.06477599999926,386.7145091249986,fall,right,389.7311537909991,correct,0.6553563330016914,
stable,stand,stim_set/hard-vcom=2-100.png,389.77600099999836,391.6913000829991,stand,left,394.7129302499998,correct,1.9262124589986342,
stable,stand,stim_set/hard-vcom=1-95.png,394.7564331659996,399.76448125000024,NA,NA,403.6502940829996,,,
stable,stand,stim_set/easy-344.png,403.69305441599863,405.3326509159997,fall,right,408.354421,correct,1.6505463749999763,
stable,stand,stim_set/hard-576.png,408.3922811659977,410.8394362910003,fall,right,413.8555580829998,incorrect,2.4527549169979466,
stable,stand,stim_set/hard-410.png,413.9027265829973,415.2916872079986,fall,right,418.3126948749996,correct,1.3995207080006367,
stable,stand,stim_set/easy-vcom=3-106.png,418.3562358329982,423.3657846249989,NA,NA,428.9956499580003,,,
stable,stand,stim_set/hard-vcom=3-82.png,429.0419702910003,434.04928266599745,NA,NA,472.6841352499978,,,
stable,stand,stim_set/hard-vcom=3-145.png,472.7221787499984,474.99780658300006,stand,left,478.01410187500005,incorrect,2.2817415419995086,
stable,stand,stim_set/hard-214.png,478.0615065409984,480.04738820799685,stand,left,483.06369691599684,correct,1.9921384170011152,
stable,stand,stim_set/hard-vcom=4-23.png,483.1077639159994,485.58098866599903,stand,left,488.59788383299747,correct,2.4797887500026263,
stable,stand,stim_set/hard-vcom=3-143.png,488.64127570799974,489.78925937500026,fall,right,492.805651249997,incorrect,1.1542753749999974,
stable,stand,stim_set/hard-599.png,492.8426573750003,494.2224801249977,stand,left,497.238543665997,correct,1.3856517499989423,
stable,stand,stim_set/easy-11.png,497.28208537499813,498.2806444159978,fall,right,501.2972877909997,correct,1.0049363339967385,
stable,stand,stim_set/easy-228.png,501.3348374999987,502.09916329099724,fall,right,505.1212759159971,correct,0.7755272909998894,
stable,stand,stim_set/hard-369.png,505.15918970799976,510.1655564579996,NA,NA,515.3464627909998,,,
stable,stand,stim_set/easy-vcom=3-121.png,515.3926700409975,517.3722182079982,fall,right,520.3883040000001,correct,1.9854361249999783,
stable,stand,stim_set/easy-vcom=1-87.png,520.435196208,525.4391455000004,NA,NA,530.0510358329993,,,
stable,stand,stim_set/easy-195.png,530.0947205409975,531.0974664159985,fall,right,534.1136373329973,correct,1.0087385830011044,
stable,stand,stim_set/hard-vcom=4-132.png,534.1554924999982,535.3307663749983,fall,right,538.346825916,incorrect,1.1810521249972226,
stable,stand,stim_set/easy-122.png,538.3911316249978,539.3390163330005,fall,right,542.3551555409977,incorrect,0.9540140419994714,
stable,NA,stim_set/hard-vcom=1-130.png,1.082546582998475,4.358828417000041,stand,left,7.3800605420001375,correct,3.2874077090018545,
stable,NA,stim_set/hard-576.png,7.416419166998821,9.21556129199962,stand,left,12.234546874999069,correct,1.805167916998471,
stable,NA,stim_set/hard-492.png,12.278447125001549,14.365568707999046,stand,left,17.38144616700083,correct,2.092612583001028,
stable,NA,stim_set/hard-vcom=1-95.png,17.423236124999676,20.573826167001243,stand,left,23.59034341699953,correct,3.15654983299828,
stable,NA,stim_set/easy-122.png,23.63308962500014,25.607088374999876,fall,right,28.624009333001595,incorrect,1.9800847080005042,
stable,NA,stim_set/hard-410.png,28.670254500000738,30.198849000000337,fall,right,33.214464042001055,correct,1.533927082997252,
stable,NA,stim_set/easy-vcom=3-121.png,33.25908716699996,35.857262707999325,fall,right,38.87338012500186,correct,2.6043137080014276,
stable,NA,stim_set/hard-vcom=2-100.png,38.9164900830001,43.56519408299937,stand,left,46.58243041700189,correct,4.655786625000474,
stable,NA,stim_set/easy-11.png,46.62450795800032,47.798602499999106,fall,right,50.814853208001296,correct,1.1799389170009817,
stable,NA,stim_set/easy-195.png,50.85681270799978,54.01724950000062,fall,right,57.03839225000047,correct,3.1708076250033628,
stable,NA,stim_set/hard-vcom=3-145.png,57.074873583002045,62.033848957999,fall,right,65.05501566699968,correct,4.969474499997887,
stable,NA,stim_set/hard-vcom=4-23.png,65.09773204199882,66.69869683300203,stand,left,69.71542008300094,correct,1.6073529999994207,
stable,NA,stim_set/easy-vcom=3-106.png,69.75735500000155,70.79231308299859,stand,left,73.81297329199879,correct,1.0454346670012455,
stable,NA,stim_set/easy-8.png,73.85377012499885,77.45704074999958,fall,right,80.473109458002,correct,3.608762999996543,
stable,NA,stim_set/hard-vcom=4-132.png,80.51378408299934,85.52550529200016,NA,NA,89.16423929200027,,,
stable,NA,stim_set/easy-vcom=1-87.png,89.21006704200045,92.03187999999864,fall,right,95.04874145800204,incorrect,2.828784417000861,
stable,NA,stim_set/easy-239.png,95.09287162500186,97.21530487500058,fall,right,100.23142008300056,correct,2.1281667920011387,
stable,NA,stim_set/easy-344.png,100.27332374999969,105.14856291700198,fall,right,108.1648289170007,correct,4.88109579200318,
stable,NA,stim_set/hard-vcom=3-143.png,108.20661066699904,111.74207066700183,stand,left,114.7630895000002,correct,3.546709625003132,
stable,NA,stim_set/easy-233.png,114.80993779200071,116.40707200000179,fall,right,119.42308749999938,correct,1.6028968749997148,
stable,NA,stim_set/hard-214.png,119.46940774999894,124.47355745800087,NA,NA,133.99598608299857,,,
stable,NA,stim_set/hard-vcom=3-82.png,134.04086458299935,135.21528050000052,stand,left,138.23174245799964,correct,1.1801730410006712,
stable,NA,stim_set/hard-599.png,138.26822687499953,139.65859733300022,stand,left,142.679842542002,correct,1.4018416250000882,
stable,NA,stim_set/hard-369.png,142.71607945800133,147.72584262500095,NA,NA,156.36415408299945,,,
stable,NA,stim_set/easy-228.png,156.40059208299863,157.40898287500022,fall,right,160.42998779200207,correct,1.0188242500007618,
stable,fall,stim_set/easy-vcom=3-142.png,164.669867042001,167.0231692080015,stand,left,170.03947037499893,correct,2.3580562919996737,
stable,fall,stim_set/easy-538.png,170.0811775000002,175.09238050000204,NA,NA,201.26062270799957,,,
stable,fall,stim_set/easy-20.png,201.30453308299911,205.11641041700204,fall,right,208.13777974999903,correct,3.8228238749979937,
stable,fall,stim_set/easy-vcom=2-3.png,208.1835043329993,209.70055733299887,fall,right,212.72164779200102,correct,1.5274515420023818,
stable,fall,stim_set/hard-40.png,212.76795966699865,214.0900480829987,stand,left,217.10919770799956,correct,1.329143541999656,
stable,fall,stim_set/hard-vcom=4-130.png,217.15320166699894,222.15675208299945,NA,NA,225.45058316699942,,,
stable,fall,stim_set/easy-vcom=3-125.png,225.49934500000018,228.15834958300184,stand,left,231.179763250002,correct,2.669751458000974,
stable,fall,stim_set/easy-vcom=4-69.png,231.2269027500006,232.2917447079999,stand,left,235.31264504199862,incorrect,1.0756209999999555,
stable,fall,stim_set/easy-vcom=1-83.png,235.3501831249996,236.2420995829998,stand,left,239.2639983750014,correct,0.902661749998515,
stable,fall,stim_set/hard-570.png,239.31181120800102,240.71471758299958,stand,left,243.7316867920017,correct,1.4088959159998922,
stable,fall,stim_set/hard-vcom=4-67.png,243.77561695799886,246.29832133300079,fall,right,249.31444991700118,correct,2.5285687080031494,
stable,fall,stim_set/hard-563.png,249.36298445799912,250.99997579200135,stand,left,254.02086504199906,correct,1.6471094580010686,
stable,fall,stim_set/easy-31.png,254.0663090829985,255.7400215830021,fall,right,258.7559954169992,incorrect,1.6796109999995679,
stable,fall,stim_set/hard-vcom=4-45.png,258.8015599169994,261.41499462499996,stand,left,264.43125795800006,incorrect,2.6191618329976336,
stable,fall,stim_set/hard-vcom=1-3.png,264.47567725000044,266.4085089580003,stand,left,269.43063791700115,correct,1.9438247500002035,
stable,fall,stim_set/easy-vcom=1-73.png,269.46745866700076,270.72523604199887,stand,left,273.7462300420011,correct,1.2679416250030044,
stable,fall,stim_set/hard-451.png,273.79245741699924,276.23971916699884,fall,right,279.25618416699945,correct,2.4537402919995657,
stable,fall,stim_set/easy-vcom=4-126.png,279.3042575420004,283.23155020800186,fall,right,286.24800058300025,correct,3.9331924580001214,
stable,fall,stim_set/hard-367.png,286.29189929199856,287.6752954170006,stand,left,290.6963807920001,correct,1.3938090419978835,
stable,fall,stim_set/easy-590.png,290.74408716700054,292.3229951249996,fall,right,295.3388385830003,correct,1.5848566249987925,
stable,fall,stim_set/hard-vcom=2-45.png,295.37566529200194,296.3730871250009,stand,left,299.3922941669989,incorrect,1.0047157500011963,
stable,fall,stim_set/hard-474.png,299.4355902499992,304.38982937499895,stand,left,307.40634062499885,incorrect,4.959999208000227,
stable,fall,stim_set/easy-63.png,307.44913683300183,309.3485568750002,fall,right,312.36459008300153,correct,1.9051002499982133,
stable,fall,stim_set/easy-280.png,312.4080784580001,313.3316023330008,fall,right,316.348243708002,correct,0.9298047089978354,
stable,fall,stim_set/hard-vcom=2-16.png,316.39622220800084,317.27327762500136,stand,left,320.2900244170014,correct,0.8837900409998838,
stable,NA,stim_set/easy-8.png,326.31974470800196,327.36482137500207,fall,right,330.38059579200126,correct,1.049834124998597,
stable,NA,stim_set/hard-vcom=1-130.png,330.4220714580006,332.15649141700123,stand,left,335.17349970800205,correct,1.740967957997782,
stable,NA,stim_set/easy-vcom=3-106.png,335.2156885830009,336.3646630830008,stand,left,339.38087862500106,correct,1.1552273749985034,
stable,NA,stim_set/hard-vcom=1-95.png,339.42261141700146,340.84832958300103,stand,left,343.8649292500013,correct,1.431924207998236,
stable,NA,stim_set/hard-vcom=3-143.png,343.906676417002,347.9315963750014,fall,right,350.94771608299925,incorrect,4.030653249999887,
stable,NA,stim_set/hard-369.png,350.98406500000056,352.75663670799986,fall,right,355.77274341700104,correct,1.7782693750014005,
stable,NA,stim_set/easy-233.png,355.8197619579987,356.87316204200033,fall,right,359.8899532920004,correct,1.0596891250024782,
stable,NA,stim_set/easy-vcom=1-87.png,359.9354607919995,361.53977574999954,stand,left,364.5565604580006,correct,1.6111327500002517,
stable,NA,stim_set/hard-492.png,364.60035762500047,367.58156791700094,fall,right,370.59800679199907,incorrect,2.9872041669987084,
stable,NA,stim_set/easy-122.png,370.6404691249991,374.0503162919995,fall,right,377.07068725000136,incorrect,3.419602375000977,
stable,NA,stim_set/easy-228.png,377.10667320799985,379.2064982920019,fall,right,382.2221463749993,correct,2.1056442919980327,
stable,NA,stim_set/hard-576.png,382.2580759170014,383.9648124999985,stand,left,386.98078404199987,correct,1.712674665999657,
stable,NA,stim_set/easy-vcom=3-121.png,387.0258217080009,390.60661866699957,stand,left,393.6230862500015,incorrect,3.5865694579988485,
stable,NA,stim_set/hard-410.png,393.66894579200016,395.43149812499905,stand,left,398.4480572079992,incorrect,1.7687851669979864,
stable,NA,stim_set/hard-vcom=2-100.png,398.49082508300125,402.674928542001,stand,left,405.6963977919986,correct,4.19474325000192,
stable,NA,stim_set/hard-599.png,405.73267795799984,406.95652104200053,stand,left,409.9756485420003,correct,1.2305731660017045,
stable,NA,stim_set/easy-11.png,410.0180267079995,411.7481183330019,stand,left,414.7645736250015,incorrect,1.7361098749970552,
stable,NA,stim_set/hard-vcom=4-132.png,414.8050685419985,416.1815569999999,fall,right,419.1981631669987,incorrect,1.3827070829975128,
stable,NA,stim_set/easy-195.png,419.2403997500005,420.3398880419991,fall,right,423.35916779200124,correct,1.1064382909971755,
stable,NA,stim_set/easy-239.png,423.4034994579997,425.2815417499987,fall,right,428.2972375829995,correct,1.8831231250005658,
stable,NA,stim_set/hard-214.png,428.34326958300153,429.5730395419996,stand,left,432.5902317079999,correct,1.2365045420010574,
stable,NA,stim_set/easy-344.png,432.6316266249996,433.881497082999,fall,right,436.897702000002,correct,1.2551247499977762,
stable,NA,stim_set/hard-vcom=4-23.png,436.94005166699935,438.5898080830011,stand,left,441.605872791999,correct,1.655788374999247,
stable,NA,stim_set/hard-vcom=3-145.png,441.64212345800115,446.6496799170018,NA,NA,450.32305195799927,,,
stable,NA,stim_set/hard-vcom=3-82.png,450.36781791700196,451.4730686670009,stand,left,454.48979695800153,correct,1.1120478750017355,
