batch_type,motivation,towers,trial_start,stim_on,choice,acc,rt,key,trial_end,score
stable,fall,stim_set/easy-228.png,26.59439674999885,29.61639758399906,fall,correct,3.0247402079985477,right,32.636310874997434,231.0
stable,fall,stim_set/hard-vcom=4-23.png,32.682537083997886,36.89313624999704,stand,correct,4.221047250000993,left,39.914358709000226,
stable,fall,stim_set/hard-vcom=2-100.png,39.95900449999681,42.13288812499741,stand,correct,2.1798316249987693,left,45.14903312499882,
stable,fall,stim_set/easy-vcom=1-87.png,45.19617462499809,48.90956454199841,fall,incorrect,3.7246411250016536,right,51.93090908399972,
stable,fall,stim_set/hard-410.png,51.97884291700029,53.917638458999136,fall,correct,1.949902625001414,right,56.93916895899747,
stable,fall,stim_set/hard-vcom=3-145.png,56.97680174999914,60.574859374999505,stand,incorrect,3.6028958749993762,left,63.59054220899998,
stable,fall,stim_set/easy-233.png,63.638835583999025,65.66661249999743,fall,correct,2.032833290999406,right,68.68229041700033,
stable,fall,stim_set/hard-vcom=3-143.png,68.72602612499759,70.92488124999727,stand,correct,2.204803250002442,left,73.94139062499744,
stable,fall,stim_set/easy-195.png,73.98562320899873,75.46812983400014,fall,correct,1.4930163339995488,right,78.48909374999857,
stable,fall,stim_set/easy-8.png,78.53151399999842,79.89311333399746,fall,correct,1.3721436249979888,right,82.91409312500036,
stable,fall,stim_set/easy-vcom=3-106.png,82.95902520899836,87.3579495419981,stand,correct,4.40485500000068,left,90.3745429169976,
stable,fall,stim_set/easy-239.png,90.42057004199887,91.72486670899889,fall,correct,1.310032917001081,right,94.7408926249991,
stable,fall,stim_set/easy-344.png,94.78379750000022,96.63335037499928,fall,correct,1.8550669579999521,right,99.64906895899912,
stable,fall,stim_set/hard-vcom=4-132.png,99.6915704589992,104.70163549999779,NA,,,NA,109.47848295899894,
stable,fall,stim_set/hard-369.png,109.5166344169993,111.16641237499789,stand,incorrect,1.655987082998763,left,114.18297924999933,
stable,fall,stim_set/hard-214.png,114.23065008399863,115.24317024999982,stand,correct,1.0233715419999498,left,118.26468820899754,
stable,fall,stim_set/hard-vcom=3-82.png,118.31094191699958,119.30844212499869,stand,correct,1.0032983749988489,left,122.3247780419988,
stable,fall,stim_set/hard-vcom=1-95.png,122.36882004200015,123.66664041699914,stand,correct,1.303891792002105,left,126.68323158400017,
stable,fall,stim_set/easy-vcom=3-121.png,126.72908641699905,128.767947291999,stand,incorrect,2.05040820800059,left,131.78982220899707,
stable,fall,stim_set/easy-122.png,131.83397041699936,133.0083976249989,fall,incorrect,1.179825291997986,right,136.02387004199772,
stable,fall,stim_set/hard-vcom=1-130.png,136.0673069589975,137.616691291998,stand,correct,1.555402875001164,left,140.6330358749983,
stable,fall,stim_set/easy-11.png,140.67686737499753,142.75015062499733,fall,correct,2.078362666998146,right,145.76615204199697,
stable,fall,stim_set/hard-576.png,145.80444154199722,148.20838816699688,stand,correct,2.410055917000136,left,151.23427549999906,
stable,fall,stim_set/hard-599.png,151.27192779199686,153.50178874999983,stand,correct,2.2405767500022193,left,156.52268012499917,
stable,fall,stim_set/hard-492.png,156.56811254199783,158.63530937500036,stand,correct,2.0780773750011576,left,161.6567026249977,
unstable,NA,stim_set/easy-vcom=1-12.png,169.2801744999997,170.65865466699688,stand,correct,1.3833472920014174,left,173.67518841699712,
unstable,NA,stim_set/hard-14.png,173.7131601250003,175.30200387500008,stand,incorrect,1.599709707999864,left,178.32306354199682,
unstable,NA,stim_set/hard-441.png,178.3652714589989,179.80172299999685,stand,incorrect,1.447260417000507,left,182.8232895000001,
unstable,NA,stim_set/hard-vcom=1-92.png,182.87142487500023,184.43554337499882,stand,incorrect,1.5745922919995792,left,187.45657216699692,
unstable,NA,stim_set/easy-411.png,187.50487104199783,189.9932732089983,fall,correct,2.4993481669989706,right,193.01441445899763,
unstable,NA,stim_set/hard-440.png,193.05940033399747,194.8085687499988,stand,incorrect,1.7543715000028897,left,197.8251498339996,
unstable,NA,stim_set/hard-vcom=4-139.png,197.86899191699922,199.0418869999994,stand,correct,1.1795915829970909,left,202.0581696249974,
unstable,NA,stim_set/easy-542.png,202.105735541998,203.29358208399935,fall,correct,1.1986074999986158,right,206.31473245899906,
unstable,NA,stim_set/hard-vcom=4-147.png,206.36392870899726,207.5419138340003,stand,correct,1.1840541250021488,left,210.55803670899695,
unstable,NA,stim_set/hard-vcom=4-22.png,210.6067769170004,212.29379570899982,stand,correct,1.6977558749968011,left,215.31500266699732,
unstable,NA,stim_set/hard-555.png,215.35934599999746,216.3688463340004,stand,correct,1.0200906669997494,left,219.38990787500006,
unstable,NA,stim_set/easy-vcom=2-73.png,219.4331734169973,220.6586744999986,fall,correct,1.2312280840014864,right,223.67514254199705,
unstable,NA,stim_set/hard-280.png,223.72352308399786,224.72511133399894,stand,correct,1.0069669160002377,left,227.74144412500027,
unstable,NA,stim_set/hard-600.png,227.7793868339977,230.7936879589979,stand,correct,3.025360458999785,left,233.81534658399687,
unstable,NA,stim_set/easy-164.png,233.86349849999897,235.81684645899804,fall,correct,1.9592077499983134,right,238.83288520899805,
unstable,NA,stim_set/hard-vcom=4-88.png,238.8762119589992,240.07533299999704,stand,correct,1.2049752919992898,left,243.09128995900028,
unstable,NA,stim_set/easy-304.png,243.1375490419996,245.16691100000025,fall,incorrect,2.0349196669994853,right,248.1827603749989,
unstable,NA,stim_set/hard-vcom=4-27.png,248.2318239169981,249.33361549999972,stand,incorrect,1.1077084160024242,left,252.34965758399994,
unstable,NA,stim_set/easy-586.png,252.396070625,254.00035429199852,fall,correct,1.6097408330024336,right,257.0162397089989,
unstable,NA,stim_set/hard-vcom=2-95.png,257.0539069589977,258.6336970839984,stand,correct,1.5853355830004148,left,261.64929691699945,
unstable,NA,stim_set/easy-28.png,261.6961360419991,262.7503286249994,fall,correct,1.059717832999013,right,265.7661399999997,
unstable,NA,stim_set/hard-78.png,265.8128115420004,267.642044917,stand,correct,1.8347348329989472,left,270.6576666250003,
unstable,NA,stim_set/easy-318.png,270.7036639589969,272.78362812499836,fall,correct,2.086177332999796,right,275.8001167919974,
unstable,NA,stim_set/hard-vcom=3-142.png,275.8481099169985,277.06060074999914,stand,correct,1.2232398330015712,left,280.08132329199725,
unstable,NA,stim_set/hard-286.png,280.1303330419978,281.2088259589982,stand,correct,1.0841385829990031,left,284.2250062089988,
unstable,fall,stim_set/hard-vcom=4-147.png,290.89540891700017,291.6522901669996,stand,correct,0.7640972919980413,left,294.67368499999793,
unstable,fall,stim_set/hard-vcom=4-88.png,294.7153961669974,295.48384141699717,stand,correct,0.7743869170008111,left,298.50053662499704,
unstable,fall,stim_set/easy-vcom=2-73.png,298.54216208399885,300.6273954169992,fall,correct,2.0962576670026465,right,303.6484696669977,
unstable,fall,stim_set/easy-304.png,303.6930488750004,304.84214283399706,fall,incorrect,1.15505108400248,right,307.85827749999953,
unstable,fall,stim_set/hard-vcom=2-95.png,307.8944823339989,308.9689391669999,stand,correct,1.0851436250013649,left,311.98990950000007,
unstable,fall,stim_set/hard-vcom=3-142.png,312.0365071669985,312.9921044169969,stand,correct,0.9612291250014096,left,316.00823070899787,
unstable,fall,stim_set/hard-vcom=4-139.png,316.051162208998,317.0255802089996,stand,correct,0.979862874999526,left,320.0412827500004,
unstable,fall,stim_set/easy-vcom=1-12.png,320.0871442919997,321.1270245839987,stand,correct,1.0510673749995476,left,324.14837320899824,
unstable,fall,stim_set/hard-vcom=4-27.png,324.19559308399766,327.43516920899856,stand,incorrect,3.250441291998868,left,330.4568610839997,
unstable,fall,stim_set/hard-280.png,330.5031926669981,331.5501895839989,stand,correct,1.052954458999011,left,334.5665076669975,
unstable,fall,stim_set/hard-vcom=1-92.png,334.6132579999976,336.51725483399787,stand,incorrect,1.9096818329999223,left,339.5336591669984,
unstable,fall,stim_set/easy-586.png,339.5781208339977,340.63575958399815,fall,correct,1.0680691669986118,right,343.6568624169995,
unstable,fall,stim_set/easy-411.png,343.70323079199807,345.03391329199803,fall,correct,1.3371808330011845,right,348.0505353339977,
unstable,fall,stim_set/hard-441.png,348.0911879999985,350.24233520899725,stand,incorrect,2.156567083999107,left,353.25807620900014,
unstable,fall,stim_set/easy-164.png,353.304739291998,354.5437117499969,fall,correct,1.249968041000102,right,357.5659132090004,
unstable,fall,stim_set/hard-78.png,357.6105690000004,358.61905662499703,stand,correct,1.0195272919991112,left,361.6405754169973,
unstable,fall,stim_set/hard-555.png,361.68272387499746,362.55176124999707,stand,correct,0.8809289169985277,left,365.57358241699694,
unstable,fall,stim_set/hard-14.png,365.6098278339996,367.2022777919992,stand,incorrect,1.6034135420013627,left,370.2234037499984,
unstable,fall,stim_set/hard-600.png,370.25954266699773,371.2441020419974,stand,correct,0.9955902910005534,left,374.2651711669969,
unstable,fall,stim_set/hard-vcom=4-22.png,374.31238366699836,375.4273784589968,stand,correct,1.1259621669996704,left,378.4488301249985,
unstable,fall,stim_set/easy-318.png,378.4933228339978,380.4423420419989,fall,correct,1.9543969580008707,right,383.45803895899735,
unstable,fall,stim_set/easy-542.png,383.5040397089979,384.2841838339991,fall,correct,0.7855586250007036,right,387.3002495419969,
unstable,fall,stim_set/hard-440.png,387.34315391699784,388.2273428339977,fall,correct,0.8952521249993879,right,391.24857970899757,
unstable,fall,stim_set/hard-286.png,391.2957816249982,392.32572762499694,stand,correct,1.0354973749999772,left,395.34123745899706,
unstable,fall,stim_set/easy-28.png,395.385694458997,396.9339887919996,fall,correct,1.5538142920013343,right,399.95009662499797,
unstable,fall,stim_set/easy-542.png,1.6880351670006348,2.916131124999083,fall,correct,1.2329360000003362,right,5.932222125000408,
unstable,fall,stim_set/hard-280.png,5.978907541997614,6.817520583997975,stand,correct,0.8497148330025084,left,9.838888999998744,
unstable,fall,stim_set/hard-vcom=1-92.png,9.88552854199952,11.39250600000014,stand,incorrect,1.5178111669993086,left,14.414968958997633,
unstable,fall,stim_set/hard-vcom=4-147.png,14.462003333999746,15.25129833399842,stand,correct,0.7999275829970429,left,18.272274999999354,
unstable,fall,stim_set/hard-vcom=3-142.png,18.31876795900098,19.04113520899773,stand,correct,0.7280280830018455,left,22.057411999998294,
unstable,fall,stim_set/easy-586.png,22.101881458998832,22.974450458998035,fall,correct,0.878103667000687,right,25.990362874999846,
unstable,fall,stim_set/easy-318.png,26.034939417000714,27.00778524999987,fall,correct,0.9785049580023042,right,30.023654291999264,
unstable,fall,stim_set/easy-411.png,30.070518666998396,31.209013458999834,fall,correct,1.1494756669999333,right,34.23050887499994,
unstable,fall,stim_set/easy-164.png,34.27738374999899,36.98428899999999,fall,correct,2.717620208997687,right,40.00543408399972,
unstable,fall,stim_set/hard-vcom=2-95.png,40.041651999999885,41.0162428750009,stand,correct,0.9800975840007595,left,44.03209433399752,
unstable,fall,stim_set/easy-304.png,44.0762348749995,45.23473749999903,stand,correct,1.169019124998158,left,48.255613666999125,
unstable,fall,stim_set/hard-14.png,48.2915401249993,49.15105558399955,stand,incorrect,0.8706085410012747,left,52.17304362499999,
unstable,fall,stim_set/hard-600.png,52.209563791999244,52.96755674999804,stand,correct,0.7687635830006911,left,55.98909833400103,
unstable,fall,stim_set/hard-440.png,56.0318342089995,57.80787179199979,fall,correct,1.7815095420010039,right,60.82685375000074,
unstable,fall,stim_set/hard-vcom=4-139.png,60.86933399999907,61.9842526249995,stand,correct,1.125330708000547,left,65.00598670899853,
unstable,fall,stim_set/hard-vcom=4-88.png,65.0478813339978,66.0343714169976,stand,correct,0.9972461669967743,left,69.05518124999799,
unstable,fall,stim_set/hard-286.png,69.102386999999,69.97449262499867,stand,correct,0.8785750829993049,left,72.99357737500031,
unstable,fall,stim_set/hard-555.png,73.03600166699835,73.90097145899927,stand,correct,0.8761024580016965,left,76.92237649999879,
unstable,fall,stim_set/hard-78.png,76.96690166699773,77.87628241700077,stand,correct,0.9199972500027798,left,80.89735799999835,
unstable,fall,stim_set/easy-vcom=2-73.png,80.93869562499822,82.20104720900054,fall,correct,1.2729378750009346,right,85.22287933400003,
unstable,fall,stim_set/hard-vcom=4-27.png,85.26994329199806,86.42462129200067,stand,incorrect,1.1606979579992185,left,89.44069283399949,
unstable,fall,stim_set/hard-441.png,89.48242212499827,91.1181214169992,stand,incorrect,1.6463184999993246,left,94.13905966699895,
unstable,fall,stim_set/hard-vcom=4-22.png,94.18646387499757,95.55106162499942,stand,correct,1.3756372500029102,left,98.57222337499843,
unstable,fall,stim_set/easy-28.png,98.61703758399744,102.44119962499826,fall,correct,3.829920707998099,right,105.45740420899892,
unstable,fall,stim_set/easy-vcom=1-12.png,105.50332354199782,106.75796379199892,stand,correct,1.2606341669998073,left,109.77455120900049,
stable,stand,stim_set/hard-vcom=1-95.png,115.99647208399983,116.9097777499992,stand,correct,0.9230934580009489,left,119.93127654199998,
stable,stand,stim_set/easy-195.png,119.9739897090003,120.80999741699998,fall,correct,0.8463255829992704,right,123.83092683399809,
stable,stand,stim_set/hard-599.png,123.86723237499973,125.09140299999854,stand,correct,1.2296092079996015,left,128.107209875001,
stable,stand,stim_set/hard-vcom=3-82.png,128.1520772090007,128.95961974999955,stand,correct,0.8184236249981041,left,131.98100912500013,
stable,stand,stim_set/easy-vcom=1-87.png,132.0266202499988,133.7745152919997,stand,correct,1.753754042001674,left,136.79137562499818,
stable,stand,stim_set/easy-239.png,136.83580858400092,137.67662087499775,fall,correct,0.8520430419994227,right,140.69756929199866,
stable,stand,stim_set/hard-576.png,140.73382599999968,141.5926706249993,stand,correct,0.869898082997679,left,144.61420954200003,
stable,stand,stim_set/hard-vcom=4-132.png,144.65496470899961,146.6829427499979,stand,correct,2.034013500000583,left,149.69923299999937,
stable,stand,stim_set/hard-214.png,149.746325084001,150.99972016699758,stand,correct,1.2587925410007301,left,154.01645058400027,
stable,stand,stim_set/hard-vcom=3-145.png,154.05255566699998,155.33492554199984,stand,incorrect,1.293158249998669,left,158.35589629199967,
stable,stand,stim_set/hard-vcom=4-23.png,158.3984760839994,159.64977245900081,stand,correct,1.2579480829990644,left,162.66661670900066,
stable,stand,stim_set/hard-492.png,162.71055566699943,163.95816458400077,stand,correct,1.2525789999999688,left,166.97435337500065,
stable,stand,stim_set/easy-vcom=3-121.png,167.01931058400078,169.09120333399915,stand,incorrect,2.078111999999237,left,172.10781220900026,
stable,stand,stim_set/hard-vcom=3-143.png,172.15177383400078,175.12474170899804,stand,correct,2.97882245800065,left,178.1411999589982,
stable,stand,stim_set/easy-8.png,178.18358154199814,178.90814379199946,fall,correct,0.7298687500006054,right,181.92380870899797,
stable,stand,stim_set/easy-vcom=3-106.png,181.96763329199894,182.86641545900056,stand,correct,0.9044752499976312,left,185.88301841700013,
stable,stand,stim_set/easy-11.png,185.9259594590003,186.8996929169989,fall,correct,0.980274500001542,right,189.9161196669993,
stable,stand,stim_set/hard-410.png,189.96395745900008,190.94145874999958,fall,correct,0.9830103339991183,right,193.95760637499916,
stable,stand,stim_set/easy-228.png,193.99535004199788,195.10978987499766,fall,correct,1.1252255830004287,right,198.13075616700007,
stable,stand,stim_set/hard-369.png,198.16834545899837,199.5414419589979,stand,incorrect,1.3788946659988142,left,202.55705954199948,
stable,stand,stim_set/easy-122.png,202.60151179199966,203.72469550000096,fall,incorrect,1.1292067499998666,right,206.74107591699794,
stable,stand,stim_set/hard-vcom=2-100.png,206.78556195900092,207.71810954199827,stand,correct,0.9438820830000623,left,210.73955600000045,
stable,stand,stim_set/easy-233.png,210.78796758399767,212.2164926669975,fall,correct,1.4339792499995383,right,215.23222587499913,
stable,stand,stim_set/easy-344.png,215.27550191699993,216.22479549999844,fall,correct,0.9546473750015139,right,219.240508709001,
stable,stand,stim_set/hard-vcom=1-130.png,219.28331075000096,220.15821425000104,stand,correct,0.880716832998587,left,223.1743452499977,
stable,fall,stim_set/easy-vcom=1-83.png,239.4332227499981,240.90992750000078,stand,correct,1.486246000000392,left,243.9307702090009,
stable,fall,stim_set/hard-vcom=1-3.png,243.9755549170004,244.98476470899914,stand,correct,1.020183624998026,left,248.0059836670007,
stable,fall,stim_set/hard-563.png,248.05522787500013,249.25794462499834,stand,correct,1.2086827079983777,left,252.27450374999898,
stable,fall,stim_set/easy-538.png,252.31643595900096,254.07653737500004,fall,correct,1.7711938749998808,right,257.09833920899837,
stable,fall,stim_set/hard-570.png,257.14703612499943,258.1995425419991,stand,correct,1.0588708340001176,left,261.2157443750002,
stable,fall,stim_set/hard-474.png,261.259547458998,262.2162425839997,fall,correct,0.9628705420000188,right,265.23248237499865,
stable,fall,stim_set/easy-280.png,265.2759432919993,266.12496549999923,fall,correct,0.8553747080004541,right,269.141088417,
stable,fall,stim_set/hard-vcom=4-45.png,269.18660029199964,269.9012542499986,stand,incorrect,0.7256570419995114,left,272.92312920900076,
stable,fall,stim_set/easy-vcom=3-125.png,272.97179716699975,275.4847778750009,stand,correct,2.523967041001015,left,278.5066837919985,
stable,fall,stim_set/easy-590.png,278.5548556249996,280.03321716699793,fall,correct,1.4844567500003905,right,283.0493816249982,
stable,fall,stim_set/easy-vcom=2-3.png,283.095189959,285.499861166998,stand,incorrect,2.4105813749993104,left,288.5156438339982,
stable,fall,stim_set/easy-31.png,288.56141804199797,289.7014840000011,fall,incorrect,1.1510438750010508,right,292.7226260419993,
stable,fall,stim_set/easy-vcom=1-73.png,292.7596389999999,294.0011275420002,stand,correct,1.2530934159985918,left,297.0234922499985,
stable,fall,stim_set/hard-vcom=4-130.png,297.06763095899805,298.66666041699864,stand,incorrect,1.6053472499988857,left,301.6834902499977,
stable,fall,stim_set/hard-vcom=4-67.png,301.7277737500008,303.16000966700085,stand,incorrect,1.4431249999979627,left,306.1813395419995,
stable,fall,stim_set/hard-367.png,306.225654124999,307.0437744999981,stand,correct,0.8283263750017795,left,310.0642803749979,
stable,fall,stim_set/hard-vcom=2-45.png,310.10175441699903,311.0933076670008,stand,incorrect,1.0023295829996641,left,314.11510287499914,
stable,fall,stim_set/easy-vcom=3-142.png,314.1617027499997,315.2416659999981,stand,correct,1.0856630420021247,left,318.2576369999988,
stable,fall,stim_set/easy-vcom=4-69.png,318.305060374998,319.433225124998,stand,incorrect,1.1341336670011515,left,322.45008091699856,
stable,fall,stim_set/hard-451.png,322.4968543340001,324.9499098339984,stand,incorrect,2.4586875410022913,left,327.9657052920011,
stable,fall,stim_set/easy-20.png,328.0096835000004,330.4580465420004,fall,correct,2.4544152500020573,right,333.4749881249991,
stable,fall,stim_set/hard-vcom=2-16.png,333.5237951249983,334.4249528340006,stand,correct,0.906908041000861,left,337.441060541998,
stable,fall,stim_set/hard-40.png,337.48752454200076,338.2416904589991,stand,correct,0.7598913330002688,left,341.25795458399807,
stable,fall,stim_set/easy-63.png,341.3014637499982,342.5847914170008,fall,correct,1.2943515410006512,right,345.60578766699837,
stable,fall,stim_set/easy-vcom=4-126.png,345.6544056669991,347.218049916999,stand,incorrect,1.574709124997753,left,350.23938162500053,
unstable,stand,stim_set/hard-388.png,1.0135976249985106,2.731403791000048,stand,correct,1.7230803330021445,left,5.747482291000779,
unstable,stand,stim_set/hard-552.png,5.793120291000378,7.022771541000111,stand,correct,1.2358911670016823,left,10.039133416001278,
unstable,stand,stim_set/hard-82.png,10.085875458000373,11.739513790998899,stand,correct,1.6590054170010262,left,14.755320874999597,
unstable,stand,stim_set/hard-382.png,14.79314612500093,15.647985832998529,stand,correct,0.8602967500009981,left,18.664020541000355,
unstable,stand,stim_set/hard-vcom=3-100.png,18.708393416000035,20.274794458000542,stand,incorrect,1.577418332999514,left,23.295966916000907,
unstable,stand,stim_set/hard-556.png,23.338785125000868,26.024549040997954,fall,incorrect,2.6965972910002165,right,29.046220290998463,
unstable,stand,stim_set/easy-77.png,29.090259415999753,30.997985250000056,fall,correct,1.913487082998472,right,34.0142038749982,
unstable,stand,stim_set/hard-442.png,34.062333333000424,35.23124537499825,stand,correct,1.174621041998762,left,38.24716741600059,
unstable,stand,stim_set/hard-vcom=2-20.png,38.29494870800045,39.34798645800038,stand,correct,1.059052332999272,left,42.36453545800032,
unstable,stand,stim_set/easy-vcom=1-145.png,42.41092850000132,43.4997295409994,stand,correct,1.0996396250011458,left,46.52063008299956,
unstable,stand,stim_set/hard-271.png,46.567957915998704,49.032844207999005,stand,correct,2.4760393329997896,left,52.054233250000834,
unstable,stand,stim_set/easy-121.png,52.10317091599791,53.40640641600112,fall,incorrect,1.3082534159984789,right,56.4220634580015,
unstable,stand,stim_set/easy-vcom=3-136.png,56.463247625000804,57.989798250000604,stand,correct,1.5318032079994737,left,61.00555579099819,
unstable,stand,stim_set/hard-vcom=1-5.png,61.049256124999374,62.32301124999867,stand,correct,1.279912999998487,left,65.33934920799948,
unstable,stand,stim_set/hard-21.png,65.38231633299802,66.2812427079989,stand,correct,0.9055064579988539,left,69.29811854099898,
unstable,stand,stim_set/hard-371.png,69.33548558300026,71.1399918749994,stand,correct,1.8101845419987512,left,74.15556274999835,
unstable,stand,stim_set/hard-345.png,74.19901870800095,75.42298670799937,fall,correct,1.2299851249990752,right,78.43878445800146,
unstable,stand,stim_set/hard-2.png,78.48532720799994,79.51467695799874,stand,correct,1.0351923329981219,left,82.53100354100025,
unstable,stand,stim_set/easy-13.png,82.57976645799863,83.89137887499965,fall,correct,1.3224859170004493,right,86.91230333299973,
unstable,stand,stim_set/hard-439.png,86.95679979099805,88.5312989999984,fall,correct,1.5804700840017176,right,91.54749066599834,
unstable,stand,stim_set/hard-vcom=2-144.png,91.58555529099976,92.73974712500058,stand,incorrect,1.159875124998507,left,95.75598795800033,
unstable,stand,stim_set/easy-vcom=4-19.png,95.80376049999904,97.76614329099903,stand,incorrect,1.9736737499988521,left,100.78741204099788,
unstable,stand,stim_set/hard-432.png,100.83533570800137,101.73953479099873,fall,correct,0.9098967089994403,right,104.75559591599813,
unstable,stand,stim_set/easy-vcom=4-4.png,104.79957504100094,106.62312145800024,fall,correct,1.8291601249984524,right,109.63904895800079,
unstable,stand,stim_set/hard-590.png,109.68608825000047,111.48969066599966,stand,incorrect,1.8094704169998295,left,114.50587924999854,
stable,NA,stim_set/hard-369.png,119.57361616599883,121.09800191599788,stand,incorrect,1.5295886249987234,left,124.11455858299814,
stable,NA,stim_set/easy-233.png,124.16363129100137,125.82303729100022,fall,correct,1.664861875000497,right,128.83851862499796,
stable,NA,stim_set/easy-344.png,128.88217133299986,129.85626170799878,fall,correct,0.9797081659999094,right,132.87229387499974,
stable,NA,stim_set/easy-vcom=3-106.png,132.91628654099986,133.7897270829999,stand,correct,0.8794923329987796,left,136.8061230409985,
stable,NA,stim_set/hard-492.png,136.8515696659997,137.78147579099823,stand,correct,0.9360496249973949,left,140.79771308300042,
stable,NA,stim_set/easy-vcom=3-121.png,140.8445322080006,142.0730490829992,stand,incorrect,1.2341589999996359,left,145.08953295799802,
stable,NA,stim_set/hard-599.png,145.1267021249987,146.2415355410012,stand,correct,1.125834082999063,left,149.26285016600013,
stable,NA,stim_set/easy-195.png,149.30657391600107,150.28144545800023,fall,correct,0.9806394170009298,right,153.29769558299813,
stable,NA,stim_set/hard-vcom=3-143.png,153.34112229099992,154.26471374999892,stand,correct,0.9291967919998569,left,157.2806837499993,
stable,NA,stim_set/hard-vcom=3-145.png,157.31864858300105,158.25793625000006,stand,incorrect,0.9505667500015988,left,161.27934020799876,
stable,NA,stim_set/easy-122.png,161.3234402909984,162.37489870799982,fall,incorrect,1.0623962909994589,right,165.39618116600104,
stable,NA,stim_set/hard-410.png,165.44384524999987,167.6481999159987,stand,incorrect,2.2099145829997724,left,170.66383912499805,
stable,NA,stim_set/easy-239.png,170.70989820799878,172.47587949999797,fall,correct,1.7754850410019571,right,175.49639000000025,
stable,NA,stim_set/hard-vcom=1-95.png,175.54354412500106,176.3975598750003,stand,correct,0.8600072090011963,left,179.4139478750003,
stable,NA,stim_set/easy-vcom=1-87.png,179.46172962499986,181.58971891599867,stand,correct,2.133698749999894,left,184.60639108299802,
stable,NA,stim_set/easy-228.png,184.644511333001,185.69818558299812,fall,correct,1.059593459001917,right,188.713873916,
stable,NA,stim_set/easy-11.png,188.75827349999963,189.61622524999984,fall,correct,0.8691222499983269,right,192.63723220799875,
stable,NA,stim_set/hard-vcom=4-23.png,192.68147324999882,193.8314145000004,stand,correct,1.1548554580003838,left,196.84689579100086,
stable,NA,stim_set/easy-8.png,196.88874787500026,199.58952579099787,fall,correct,2.707071041000745,right,202.60581133300002,
stable,NA,stim_set/hard-vcom=3-82.png,202.65243550000014,204.0163919580009,stand,correct,1.374859416999243,left,207.0375775829998,
stable,NA,stim_set/hard-vcom=2-100.png,207.08266470799936,208.09131458299817,stand,correct,1.0194695000027423,left,211.11286570800075,
stable,NA,stim_set/hard-576.png,211.15086299999894,211.9727506249983,stand,correct,0.8279164579980716,left,214.9893517499986,
stable,NA,stim_set/hard-vcom=4-132.png,215.03156320799826,216.79131691599832,stand,correct,1.771217624998826,left,219.8136964160003,
stable,NA,stim_set/hard-214.png,219.86208016599994,220.76494516599996,stand,correct,0.9090378749970114,left,223.78112741600125,
stable,NA,stim_set/hard-vcom=1-130.png,223.82489825000084,225.13335158300106,stand,correct,1.3190622500005702,left,228.15410483300002,
unstable,NA,stim_set/hard-vcom=4-147.png,243.39205975000004,245.61472262499956,stand,correct,2.2275835420005023,left,248.6309473750007,
unstable,NA,stim_set/easy-318.png,248.67769154100097,249.73149850000118,fall,correct,1.060110665999673,right,252.74765258299885,
unstable,NA,stim_set/hard-vcom=4-22.png,252.7970884159986,253.6830130829985,stand,correct,0.8976847499980067,left,256.7043737499989,
unstable,NA,stim_set/easy-28.png,256.7513772909988,257.6915038750012,fall,correct,0.9510898750013439,right,260.712281125001,
unstable,NA,stim_set/hard-vcom=4-139.png,260.7561683749991,261.6412108330005,stand,correct,0.8960345000014058,left,264.66257612499976,
unstable,NA,stim_set/easy-vcom=2-73.png,264.70569766599874,266.8814852079995,fall,correct,2.181940875001601,right,269.8978830829983,
unstable,NA,stim_set/hard-14.png,269.936091749998,271.07508929100004,stand,incorrect,1.149932667001849,left,274.09603145800065,
unstable,NA,stim_set/hard-555.png,274.1405227079995,274.999680541001,stand,correct,0.8703262090020871,left,278.0210913749979,
unstable,NA,stim_set/hard-vcom=2-95.png,278.0590873330002,279.6565205830011,stand,correct,1.6031516670009296,left,282.6727980409996,
unstable,NA,stim_set/easy-411.png,282.72116008300145,283.6832724160013,fall,correct,0.9728849579987582,right,286.7041192910001,
unstable,NA,stim_set/hard-286.png,286.75273504099823,287.6913604580004,stand,correct,0.9499895410008321,left,290.7125392909984,
unstable,NA,stim_set/easy-586.png,290.75881008299984,291.85631604100126,fall,correct,1.1030424999989918,right,294.87249770799826,
unstable,NA,stim_set/hard-440.png,294.9172434159991,295.96455554099884,fall,correct,1.0535945409974374,right,298.9811911659999,
unstable,NA,stim_set/hard-vcom=1-92.png,299.02976066599877,300.3167372499993,stand,incorrect,1.2975669580009708,left,303.33766054100124,
unstable,NA,stim_set/hard-vcom=4-88.png,303.38152966599955,304.71639941600006,stand,correct,1.345994666997285,left,307.73771945800036,
unstable,NA,stim_set/hard-78.png,307.7860078749982,308.63993270799983,stand,correct,0.8592116670006362,left,311.6557209579987,
unstable,NA,stim_set/easy-164.png,311.70414841599995,313.2564710000006,fall,correct,1.5578574169994681,right,316.27262470799906,
unstable,NA,stim_set/hard-441.png,316.3151914580012,318.7898037080013,stand,incorrect,2.4803284579975298,left,321.80605574999936,
unstable,NA,stim_set/easy-542.png,321.8537762909982,323.31667441600075,fall,correct,1.473175249997439,right,326.337791416001,
unstable,NA,stim_set/hard-vcom=4-27.png,326.3870214999988,330.41493012499996,stand,incorrect,4.033274666999205,left,333.4312507499999,
unstable,NA,stim_set/hard-vcom=3-142.png,333.4803726249993,334.4482040410003,stand,correct,0.973979792001046,left,337.464435291,
unstable,NA,stim_set/hard-600.png,337.50232466599846,338.41672308299894,stand,correct,0.9255037080001784,left,341.4380380830007,
unstable,NA,stim_set/hard-280.png,341.4872038329995,342.43967970800077,stand,correct,0.9589743750002526,left,345.4562304579995,
unstable,NA,stim_set/easy-vcom=1-12.png,345.5048484580002,346.29176529100005,stand,correct,0.7980262909986777,left,349.31263712500004,
unstable,NA,stim_set/easy-304.png,349.35859820800033,350.3316580409992,fall,incorrect,0.9792107920002309,right,353.3476688749979,
unstable,stand,stim_set/hard-556.png,2.5439579590020003,4.02176566700291,stand,correct,1.4822157499984314,left,7.037310542000341,
unstable,stand,stim_set/easy-vcom=4-19.png,7.0855663340007595,8.238465459002327,stand,incorrect,1.1597486659993592,left,11.25503716700041,
unstable,stand,stim_set/easy-vcom=3-136.png,11.297034084000188,12.59691233400008,stand,correct,1.3058613339999283,left,15.612890834003338,
unstable,stand,stim_set/hard-271.png,15.66011116700247,16.61360920900188,stand,correct,0.9594418329979817,left,19.629254750001564,
unstable,stand,stim_set/hard-432.png,19.6770662500021,23.79011787500349,fall,correct,4.123865166999167,right,26.811499334002292,
unstable,stand,stim_set/hard-vcom=2-144.png,26.84942083400165,27.856669542001327,stand,incorrect,1.0182732079993002,left,30.878508917001454,
unstable,stand,stim_set/hard-2.png,30.924932875001105,33.305203125000844,stand,correct,2.386727500001143,left,36.32192854200184,
unstable,stand,stim_set/hard-382.png,36.35958429200036,37.18871458400099,stand,correct,0.8352388330022222,left,40.20466041700274,
unstable,stand,stim_set/hard-vcom=1-5.png,40.248292667001806,42.64004508400103,stand,correct,2.402934749999986,left,45.661153417000605,
unstable,stand,stim_set/hard-552.png,45.707782375000534,46.58019950000016,stand,correct,0.8782823340006871,left,49.596346459002234,
unstable,stand,stim_set/hard-vcom=3-100.png,49.640087292002136,51.51376291700217,stand,incorrect,1.87917699999889,left,54.529224292000436,
unstable,stand,stim_set/hard-590.png,54.57677183400301,57.090392084002815,fall,correct,2.524427000000287,right,60.11182208400351,
unstable,stand,stim_set/hard-371.png,60.14899025000341,61.17190183400089,fall,incorrect,1.0287492089992156,right,64.18756654200115,
unstable,stand,stim_set/hard-345.png,64.2312124170021,65.21345087500231,fall,correct,0.9882946670004458,right,68.22983308400217,
unstable,stand,stim_set/easy-13.png,68.27830987500056,69.24909141700118,fall,correct,0.9810024999969755,right,72.2697822500013,
unstable,stand,stim_set/hard-439.png,72.3134565420005,73.31369195900334,fall,correct,1.005231916999037,right,76.33011016700038,
unstable,stand,stim_set/hard-388.png,76.3680400000012,77.39692595900124,stand,correct,1.0348330000015267,left,80.41292645900103,
unstable,stand,stim_set/easy-vcom=4-4.png,80.45707904200026,81.5552528340013,fall,correct,1.1038600419997238,right,84.57101683400106,
unstable,stand,stim_set/hard-vcom=2-20.png,84.61892904200067,86.29694658400331,stand,correct,1.684044666999398,left,89.31323708400305,
unstable,stand,stim_set/easy-vcom=1-145.png,89.35923370900127,90.43853841700184,stand,correct,1.0853392079989135,left,93.45492612500311,
unstable,stand,stim_set/easy-77.png,93.49927200000093,94.69020479200117,fall,correct,1.2014689999996335,right,97.71101170900147,
unstable,stand,stim_set/hard-82.png,97.75789950000035,98.7636602920029,stand,correct,1.0114255000007688,left,101.78031195900257,
unstable,stand,stim_set/hard-442.png,101.82833154200125,103.6902343340007,stand,correct,1.8728545829981158,left,106.71101341700341,
unstable,stand,stim_set/easy-121.png,106.76021000000037,107.71344687500095,fall,incorrect,0.9593262080015847,right,110.72948212500341,
unstable,stand,stim_set/hard-21.png,110.77243891700346,111.80706379200274,stand,correct,1.0457027919983375,left,114.82883725000283,
stable,stand,stim_set/easy-vcom=4-126.png,130.3899379170034,132.03848266700152,stand,incorrect,1.6529414169999654,left,135.0546328340024,
stable,stand,stim_set/easy-vcom=4-69.png,135.1021383340012,135.8904267500002,fall,correct,0.798816208000062,right,138.91141958400112,
stable,stand,stim_set/hard-367.png,138.9556302500023,140.72995941700356,stand,correct,1.7802575419991626,left,143.74614000000292,
stable,stand,stim_set/easy-vcom=1-83.png,143.7838810420035,144.89835733400105,stand,correct,1.1253682499991555,left,147.91977558400322,
stable,stand,stim_set/easy-20.png,147.9639698750034,148.91379845900155,fall,correct,0.9557304170011776,right,151.9322017500017,
stable,stand,stim_set/easy-vcom=3-142.png,151.97869708400322,153.45514387500225,stand,correct,1.4824122079990047,left,156.47173820900207,
stable,stand,stim_set/hard-vcom=4-67.png,156.51567591700223,158.26341329200295,fall,correct,1.7535830829983752,right,161.28012783400118,
stable,stand,stim_set/easy-vcom=3-125.png,161.32895100000314,162.25499329200102,fall,incorrect,0.9318917080017854,right,165.27117370900305,
stable,stand,stim_set/easy-vcom=2-3.png,165.31698354200125,166.2816807920026,fall,correct,0.9756927499984158,right,169.3027462090031,
stable,stand,stim_set/hard-570.png,169.35133716700147,170.31505083400043,stand,correct,0.9747038749992498,left,173.33652908400109,
stable,stand,stim_set/easy-538.png,173.3786060420025,174.56486729200333,fall,correct,1.197428375002346,right,177.58593970900256,
stable,stand,stim_set/easy-63.png,177.62988154200139,178.70520129200304,fall,correct,1.0810140829999,right,181.72146912500102,
stable,stand,stim_set/hard-vcom=1-3.png,181.76607133400103,182.76365912500114,stand,correct,1.003519249999954,left,185.78023825000128,
stable,stand,stim_set/hard-40.png,185.8271517500034,186.95519620900086,stand,correct,1.1338693750003586,left,189.97095362500113,
stable,stand,stim_set/easy-280.png,190.01484741700187,190.88219029200263,fall,correct,0.8780661250020785,right,193.9031296250032,
stable,stand,stim_set/hard-vcom=2-16.png,193.95169416700082,195.7051392090034,stand,correct,1.7595431250010733,left,198.72175345900177,
stable,stand,stim_set/hard-474.png,198.76558879200093,199.88808720900124,fall,correct,1.1284564580018923,right,202.90423704200293,
stable,stand,stim_set/hard-563.png,202.95271312500336,203.8301790000005,stand,correct,0.8835839580024185,left,206.84633879200192,
stable,stand,stim_set/hard-451.png,206.8934595000028,207.75667583400354,fall,correct,0.8745934170001419,right,210.7780287500027,
stable,stand,stim_set/easy-vcom=1-73.png,210.81545675000234,211.86348883400206,fall,incorrect,1.0535024999990128,right,214.87950275000185,
stable,stand,stim_set/easy-590.png,214.92785650000224,215.78015262500048,fall,correct,0.8580441669982974,right,218.7955463750004,
stable,stand,stim_set/hard-vcom=4-130.png,218.8398772920009,220.11347395900157,fall,correct,1.2796907919982914,right,223.1293980420014,
stable,stand,stim_set/hard-vcom=2-45.png,223.16676762500356,225.74655691700173,stand,incorrect,2.5869029169989517,left,228.7634499170017,
stable,stand,stim_set/hard-vcom=4-45.png,228.80950066700098,230.5736867500018,fall,correct,1.7748072920003324,right,233.5949998750002,
stable,stand,stim_set/easy-31.png,233.64095304200237,234.52331116700225,fall,incorrect,0.8936244169999554,right,237.54439450000064,
stable,NA,stim_set/easy-vcom=3-142.png,244.05085666700325,245.3553562920024,stand,correct,1.3088494169969636,left,248.37091320900072,
stable,NA,stim_set/hard-vcom=4-67.png,248.4136720000024,250.67336933400293,fall,correct,2.2707499170028314,right,253.6948591670007,
stable,NA,stim_set/easy-vcom=3-125.png,253.74236541700157,254.79689600000347,fall,incorrect,1.0598915410009795,right,257.8126775000019,
stable,NA,stim_set/easy-20.png,257.8550552090019,258.7157505840005,fall,correct,0.8710403340010089,right,261.7363910840031,
stable,NA,stim_set/easy-vcom=4-69.png,261.782512875001,263.13860150000255,stand,incorrect,1.362359667000419,left,266.15480137500344,
stable,NA,stim_set/easy-vcom=1-73.png,266.1912049170023,267.78161766700214,fall,incorrect,1.6015786249990924,right,270.80294558400055,
stable,NA,stim_set/hard-451.png,270.84795779200067,272.58196050000333,fall,correct,1.7448169160015823,right,275.60300066700074,
stable,NA,stim_set/easy-538.png,275.6438828750033,276.59690795900315,fall,correct,0.958611000001838,right,279.612741459001,
stable,NA,stim_set/hard-570.png,279.66008970900293,280.73828287500146,stand,correct,1.084464665997075,left,283.75460716700036,
stable,NA,stim_set/easy-280.png,283.79726966700036,284.99012066700016,fall,correct,1.2034498339999118,right,288.0112890420023,
stable,NA,stim_set/hard-vcom=2-45.png,288.04758012500315,288.9466703340004,stand,incorrect,0.905464084000414,left,291.96335116700357,
stable,NA,stim_set/hard-367.png,292.0061890420002,293.055214875003,stand,correct,1.05484829100169,left,296.0714005840018,
stable,NA,stim_set/hard-vcom=2-16.png,296.1188244590012,297.89655733400286,stand,correct,1.7837143340002513,left,300.9127588340016,
stable,NA,stim_set/hard-563.png,300.9603613750005,302.3485901250024,stand,correct,1.3991700829974434,left,305.3699698340024,
stable,NA,stim_set/easy-vcom=2-3.png,305.41445037500307,307.4386137500005,stand,incorrect,2.0304377079992264,left,310.4552718750019,
stable,NA,stim_set/easy-vcom=1-83.png,310.4916540000013,311.6317755420023,stand,correct,1.1516593749984168,left,314.6538992500027,
stable,NA,stim_set/hard-vcom=4-45.png,314.69853562500066,316.74672312500115,stand,incorrect,2.054033458000049,left,319.76303912500225,
stable,NA,stim_set/hard-vcom=1-3.png,319.8062110000028,320.6900349170028,stand,correct,0.8947542909991171,left,323.71140950000336,
stable,NA,stim_set/hard-474.png,323.75354404200334,327.7304247500033,fall,correct,3.982528500000626,right,330.7460633340015,
stable,NA,stim_set/easy-590.png,330.7932087920017,332.1070328340029,fall,correct,1.324456915997871,right,335.1279122920023,
stable,NA,stim_set/hard-vcom=4-130.png,335.17044329200144,336.1320333340009,stand,incorrect,0.9718749170024239,left,339.1534615840028,
stable,NA,stim_set/easy-63.png,339.19569712500015,340.146919042003,fall,correct,0.9567615419982758,right,343.16292433400304,
stable,NA,stim_set/hard-40.png,343.2080028750024,344.03036662500017,stand,correct,0.8276799580016814,left,347.0461836250033,
stable,NA,stim_set/easy-vcom=4-126.png,347.09326083400083,349.121985167003,stand,incorrect,2.0345287090021884,left,352.13800062500013,
stable,NA,stim_set/easy-31.png,352.1825802090025,353.04054091700164,fall,incorrect,0.8685824579988548,right,356.06168916700335,
