batch_type,motivation,towers,trial_start,stim_on,choice,acc,rt,key,trial_end,score
unstable,stand,stim_set/easy-304.png,12.110821125002985,13.718420666002203,fall,incorrect,1.606698540999787,right,16.735360124999715,241.0
unstable,stand,stim_set/easy-318.png,16.783063416001823,19.289922125000885,fall,correct,2.5147723329973815,right,22.30966400000034,
unstable,stand,stim_set/hard-14.png,22.347364291003032,24.256837125001766,fall,correct,1.9170415420012432,right,27.276903500001936,
unstable,stand,stim_set/hard-78.png,27.322550541000965,28.440355416001694,stand,correct,1.1247634579995065,left,31.459438041001704,
unstable,stand,stim_set/hard-vcom=4-88.png,31.50266566600112,33.03549370800101,stand,correct,1.5334556249981688,left,36.04812216600112,
unstable,stand,stim_set/easy-542.png,36.09550016600042,36.941050291003194,fall,correct,0.8522637919995759,right,39.95962904100088,
unstable,stand,stim_set/hard-555.png,40.00384237500111,41.46936800000185,stand,correct,1.4662288340005034,left,44.49400808300197,
unstable,stand,stim_set/hard-440.png,44.53817629100013,45.769348208003066,fall,correct,1.2321868750004796,right,48.7827550410002,
unstable,stand,stim_set/hard-286.png,48.831793583001854,50.00188420800259,stand,correct,1.171368999999686,left,53.01478504100305,
unstable,stand,stim_set/hard-vcom=4-147.png,53.06309795800189,57.30221154100218,stand,correct,4.239121875001729,left,60.314444916002685,
unstable,stand,stim_set/hard-vcom=4-22.png,60.36272658300004,62.7743177500015,stand,correct,2.4193835829973978,left,65.79400033300044,
unstable,stand,stim_set/easy-164.png,65.8420576660028,68.20219808300317,fall,correct,2.361525790998712,right,71.21528958300041,
unstable,stand,stim_set/hard-vcom=4-27.png,71.26419941600034,73.40285866600243,stand,incorrect,2.1401046669998323,left,76.41578325000228,
unstable,stand,stim_set/hard-vcom=1-92.png,76.46414125000229,78.50721891600188,fall,correct,2.0503497919999063,right,81.52665829100079,
unstable,stand,stim_set/hard-600.png,81.56445229100063,82.72371241600194,stand,correct,1.1675020000002405,left,85.74390695800321,
unstable,stand,stim_set/hard-vcom=2-95.png,85.78141154100012,88.9355492499999,stand,correct,3.15525287499986,left,91.9485375410004,
unstable,stand,stim_set/hard-441.png,91.99068700000134,93.61959379100153,fall,correct,1.6304628750003758,right,96.6319849160027,
unstable,stand,stim_set/hard-280.png,96.67962200000329,98.43619908300025,fall,incorrect,1.7573896249996324,right,101.44923816600203,
unstable,stand,stim_set/easy-28.png,101.4952512910022,102.44112054100333,fall,correct,0.9536056659999304,right,105.46017966600266,
unstable,stand,stim_set/easy-vcom=1-12.png,105.50753029100088,108.72469225000168,stand,correct,3.225381959000515,left,111.74403329100096,
unstable,stand,stim_set/hard-vcom=3-142.png,111.79208350000044,114.03635029100042,stand,correct,2.245390749998478,left,117.04890937500022,
unstable,stand,stim_set/easy-586.png,117.09453583300274,119.40784820800036,fall,correct,2.321563417001016,right,122.4269617500031,
unstable,stand,stim_set/easy-411.png,122.47472245800236,123.9864549160011,fall,correct,1.513002832998609,right,126.99888345799991,
unstable,stand,stim_set/easy-vcom=2-73.png,127.04177295800037,129.53685716600012,fall,correct,2.496650999997655,right,132.54970241600313,
unstable,stand,stim_set/hard-vcom=4-139.png,132.59373195800072,135.35338504100218,stand,correct,2.7617597919997934,left,138.3668737500011,
unstable,NA,stim_set/hard-vcom=1-92.png,151.08385737500066,153.3072460830008,stand,incorrect,2.2318284590000985,left,156.3281166250017,
unstable,NA,stim_set/hard-78.png,156.3743273330001,158.12035654100328,stand,correct,1.7463287919999857,left,161.13278795800215,
unstable,NA,stim_set/hard-vcom=4-147.png,161.18205345800015,162.30805329100258,stand,correct,1.1341170840023551,left,165.32807433300331,
unstable,NA,stim_set/hard-vcom=4-139.png,165.37113791600132,167.06985437500043,stand,correct,1.6995227500010515,left,170.0827126660006,
unstable,NA,stim_set/hard-vcom=3-142.png,170.13055975000316,172.1037528750021,stand,correct,1.9747933329999796,left,175.11662012500165,
unstable,NA,stim_set/hard-vcom=4-27.png,175.1654062080015,177.62059900000168,fall,correct,2.4557042499982344,right,180.63286737500312,
unstable,NA,stim_set/hard-440.png,180.67691529100193,181.60393250000197,fall,correct,0.9282242910012428,right,184.6162695000021,
unstable,NA,stim_set/easy-164.png,184.66420041600213,185.47017075000258,fall,correct,0.8064941250013362,right,188.4826776660011,
unstable,NA,stim_set/hard-280.png,188.53043429100217,191.7541525000015,fall,incorrect,3.225523041000997,right,194.7672695000001,
unstable,NA,stim_set/easy-28.png,194.81329466600073,195.65833191600177,fall,correct,0.853457791999972,right,198.67874412500169,
unstable,NA,stim_set/easy-586.png,198.7242385410027,200.60862866600291,fall,correct,1.8925352500009467,right,203.62812954100082,
unstable,NA,stim_set/easy-542.png,203.6754362080028,205.22116466599982,fall,correct,1.547055333001481,right,208.23409141600132,
unstable,NA,stim_set/hard-14.png,208.2716028750001,210.25821833300142,stand,incorrect,1.9960924589977367,left,213.27926112500063,
unstable,NA,stim_set/hard-vcom=4-22.png,213.32788274999984,215.0586652910024,stand,correct,1.7397181669985002,left,218.07909816600295,
unstable,NA,stim_set/hard-555.png,218.1230614160013,219.40383475000272,stand,correct,1.2822056250006426,left,222.41661325000314,
unstable,NA,stim_set/hard-286.png,222.46532737500092,223.88782479099973,stand,correct,1.4233248750024359,left,226.89996820800297,
unstable,NA,stim_set/easy-318.png,226.94650033300059,229.23768341600226,fall,correct,2.2920969169972523,right,232.2501891250031,
unstable,NA,stim_set/hard-vcom=4-88.png,232.29316250000193,233.43738554100128,stand,correct,1.1462271249984042,left,236.4504745000013,
unstable,NA,stim_set/easy-vcom=1-12.png,236.49772187500275,237.70834225,stand,correct,1.2200335839988838,left,240.72921558300004,
unstable,NA,stim_set/easy-411.png,240.7770780000028,242.238021166002,fall,correct,1.463110874999984,right,245.25152487500236,
unstable,NA,stim_set/easy-vcom=2-73.png,245.29480291599975,248.54252416600139,fall,correct,3.2564286249980796,right,251.56244549999974,
unstable,NA,stim_set/hard-441.png,251.60439820800093,254.5050110000011,stand,incorrect,2.90255149999939,left,257.5183250000009,
unstable,NA,stim_set/hard-600.png,257.5561333330006,258.4761287500005,stand,correct,0.9272824159997981,left,261.49567800000295,
unstable,NA,stim_set/hard-vcom=2-95.png,261.533760125003,263.4587422910008,stand,correct,1.9333996669993212,left,266.4794337910025,
unstable,NA,stim_set/easy-304.png,266.5251543750019,269.7212557910025,fall,incorrect,3.196474499996839,right,272.733702583002,
stable,stand,stim_set/easy-vcom=1-83.png,287.01041741600056,289.2054489580005,stand,correct,2.1949287909992563,left,292.2179387080032,
stable,stand,stim_set/hard-vcom=4-67.png,292.2621011250012,294.1554496660028,fall,correct,1.8952806670022255,right,297.16856487500263,
stable,stand,stim_set/hard-40.png,297.21511212500263,298.3595916250015,stand,correct,1.1529107080023095,left,301.37941529100135,
stable,stand,stim_set/easy-vcom=3-125.png,301.42768637500194,302.79311179100114,fall,incorrect,1.3742218330007745,right,305.8131257080022,
stable,stand,stim_set/easy-538.png,305.8551682080033,307.389033958003,fall,correct,1.5362915840014466,right,310.4025870000005,
stable,stand,stim_set/hard-367.png,310.4466044159999,312.0600161660004,stand,correct,1.6212969579974015,left,315.0797179580004,
stable,stand,stim_set/easy-vcom=2-3.png,315.1254808750018,319.2550265830032,stand,incorrect,4.130549833000259,left,322.26717858300253,
stable,stand,stim_set/hard-vcom=2-45.png,322.30508729100256,326.1384088750019,fall,correct,3.8357259160002286,right,329.15211320800154,
stable,stand,stim_set/easy-vcom=3-142.png,329.198725000002,331.05914570800087,stand,correct,1.8692943749992992,left,334.07943104100195,
stable,stand,stim_set/easy-280.png,334.1233236250009,335.9223556249999,fall,correct,1.8004736670009152,right,338.93512154100245,
stable,stand,stim_set/easy-vcom=1-73.png,338.9727792500016,342.32663466600206,stand,correct,3.362220041999535,left,345.3464930830014,
stable,stand,stim_set/hard-vcom=2-16.png,345.3953665000008,349.3105913750005,fall,incorrect,3.9237541670008795,right,352.3301083330007,
stable,stand,stim_set/easy-63.png,352.3734035830021,354.3443170410028,fall,correct,1.979130832998635,right,357.36382570800197,
stable,stand,stim_set/easy-31.png,357.4098328750006,359.90617304100306,fall,incorrect,2.498253207999369,right,362.9193367910011,
stable,stand,stim_set/hard-474.png,362.9633377500031,366.4559999580015,fall,correct,3.493850749997364,right,369.4682522080002,
stable,stand,stim_set/hard-451.png,369.5143590410007,373.53967904100136,stand,incorrect,4.026116375000129,left,376.552240625002,
stable,stand,stim_set/easy-590.png,376.60079275000317,377.85597345800124,fall,correct,1.2570436250025523,right,380.869386958002,
stable,stand,stim_set/easy-vcom=4-69.png,380.9167849160003,383.8231292080018,fall,correct,2.9074498340014543,right,386.8357846250001,
stable,stand,stim_set/easy-20.png,386.87974400000166,388.77313616600077,fall,correct,1.8951867499999935,right,391.78627654100274,
stable,stand,stim_set/easy-vcom=4-126.png,391.8344108750025,396.0600228330004,stand,incorrect,4.234351666000293,left,399.0801575000005,
stable,stand,stim_set/hard-vcom=4-130.png,399.12415837500157,403.38978025000324,fall,correct,4.267465375000029,right,406.4026738749999,
stable,stand,stim_set/hard-vcom=1-3.png,406.44726900000023,407.443886791003,stand,correct,1.0058256249976694,left,410.4646107910012,
stable,stand,stim_set/hard-563.png,410.51355916600005,414.29489329100034,fall,incorrect,3.789006208000501,right,417.3140901250008,
stable,stand,stim_set/hard-vcom=4-45.png,417.3601652080033,421.273397500001,fall,correct,3.914685374998953,right,424.28602500000125,
stable,stand,stim_set/hard-570.png,424.3342972080027,425.4401031660018,stand,correct,1.1074946250009816,left,428.4534367910019,
stable,fall,stim_set/hard-vcom=3-82.png,8.418083000000479,9.518375916999503,stand,correct,1.1075499590006075,left,12.538788958998339,
stable,fall,stim_set/hard-vcom=1-130.png,12.581732333997934,14.94748833400081,stand,correct,2.3676554999983637,left,17.960611374997825,
stable,fall,stim_set/easy-344.png,18.00346775000071,20.30227508399912,fall,correct,2.307050708001043,right,23.321800208999775,
stable,fall,stim_set/easy-vcom=1-87.png,23.368859833997703,25.185444250000728,stand,correct,1.8244571670002188,left,28.20503212499898,
stable,fall,stim_set/hard-576.png,28.243044958999235,30.61868074999802,stand,correct,2.3842134999977134,left,33.63877829199919,
stable,fall,stim_set/easy-195.png,33.68297808399802,35.21806362499774,fall,correct,1.5432791250023001,right,38.2377012500001,
stable,fall,stim_set/easy-vcom=3-121.png,38.28405758399822,41.364557041997614,stand,incorrect,3.0819795000024897,left,44.378015750000486,
stable,fall,stim_set/easy-228.png,44.415246833999845,45.60222566700031,fall,correct,1.195575583999016,right,48.622132541997416,
stable,fall,stim_set/hard-vcom=3-143.png,48.66531370899975,50.05186791699816,stand,correct,1.3950469580013305,left,53.07230874999732,
stable,fall,stim_set/hard-410.png,53.119775249997474,56.38582308399782,stand,incorrect,3.274290583001857,left,59.405680959000165,
stable,fall,stim_set/hard-vcom=4-132.png,59.44797762500093,61.5640758749978,fall,incorrect,2.118089666000742,right,64.57747016699795,
stable,fall,stim_set/hard-vcom=2-100.png,64.62206191699806,66.93120574999921,stand,correct,2.310459707998234,left,69.94365079199997,
stable,fall,stim_set/hard-492.png,69.98898391699913,71.6140650419984,stand,correct,1.6265393339999719,left,74.62689270899864,
stable,fall,stim_set/hard-vcom=1-95.png,74.67074345899891,76.7481169169987,stand,correct,2.0784880419996625,left,79.76035425000009,
stable,fall,stim_set/easy-233.png,79.80833570899995,81.0977724589975,fall,correct,1.290178499999456,right,84.1100919169985,
stable,fall,stim_set/hard-599.png,84.14778012500028,87.26458124999772,stand,correct,3.118607250002242,left,90.27774549999958,
stable,fall,stim_set/hard-vcom=4-23.png,90.32193466699755,91.9976263339995,stand,correct,1.6761492080004246,left,95.00971141699847,
stable,fall,stim_set/easy-8.png,95.0517437089984,95.94779783400008,fall,correct,0.8970682919971296,right,98.96046962499895,
stable,fall,stim_set/easy-239.png,99.00627774999884,101.06951404199935,fall,correct,2.0715227910004614,right,104.08959141699961,
stable,fall,stim_set/hard-vcom=3-145.png,104.12752758399802,107.29843708399858,stand,incorrect,3.1729514580001705,left,110.31179937499837,
stable,fall,stim_set/easy-vcom=3-106.png,110.35559612499856,112.10223504199894,stand,correct,1.7548346250005125,left,115.12199145900013,
stable,fall,stim_set/hard-214.png,115.16908924999734,116.0152124999986,stand,correct,0.8473630830012553,left,119.02753099999973,
stable,fall,stim_set/easy-11.png,119.0707050839992,121.8526882499973,fall,correct,2.790867249997973,right,124.87295991700012,
stable,fall,stim_set/hard-369.png,124.9106455000001,129.3700143749993,stand,incorrect,4.467305833000864,left,132.3894561249981,
stable,fall,stim_set/easy-122.png,132.43319533400063,133.3982657919987,fall,incorrect,0.9670944169993163,right,136.41170083399993,
unstable,NA,stim_set/easy-542.png,143.64442741699895,144.92035820899764,fall,correct,1.28337641699909,right,147.94026416699853,
unstable,NA,stim_set/easy-304.png,147.9859202919979,149.98707008400015,fall,incorrect,2.0091867909977736,right,153.00644920899867,
unstable,NA,stim_set/hard-vcom=3-142.png,153.05436858399844,154.29846391699903,stand,correct,1.2453300000015588,left,157.31126779199985,
unstable,NA,stim_set/hard-vcom=1-92.png,157.35964404200058,159.41511529199852,stand,incorrect,2.0568678750023537,left,162.42763962499885,
unstable,NA,stim_set/easy-411.png,162.47546379199775,164.75316841699896,fall,correct,2.286716290996992,right,167.77344162499867,
unstable,NA,stim_set/hard-78.png,167.81985554199855,169.38650229199993,stand,correct,1.5756785410012526,left,172.40679058399837,
unstable,NA,stim_set/easy-586.png,172.45239379199847,173.33716925000044,fall,correct,0.8923319589994207,right,176.35619999999835,
unstable,NA,stim_set/hard-vcom=4-27.png,176.40491654200014,179.8660465840003,fall,correct,3.462612583000009,right,182.8789464170004,
unstable,NA,stim_set/hard-vcom=4-147.png,182.9273412090006,184.88276491699798,stand,correct,1.9574410830027773,left,187.8962578339997,
unstable,NA,stim_set/hard-440.png,187.9402544170007,188.76534291699863,fall,correct,0.8273206669982756,right,191.7789397919987,
unstable,NA,stim_set/hard-441.png,191.82097666700065,195.03717833399787,fall,correct,3.2250426659993536,right,198.0573794999982,
unstable,NA,stim_set/hard-555.png,198.1012018750007,198.9657610840004,stand,correct,0.8664672499980952,left,201.9788456669994,
unstable,NA,stim_set/hard-14.png,202.0158272089975,204.04890570899806,stand,incorrect,2.0342463749984745,left,207.06135854199965,
unstable,NA,stim_set/easy-28.png,207.10688458399818,208.08233129200016,fall,correct,0.9766728340000554,right,211.0950786249996,
unstable,NA,stim_set/hard-286.png,211.1437160839996,213.81997254199814,stand,correct,2.685379834001651,left,216.84034612499818,
unstable,NA,stim_set/easy-318.png,216.88666220899904,218.19896620899817,fall,correct,1.3144889590003004,right,221.21245058400018,
unstable,NA,stim_set/hard-vcom=4-139.png,221.25623749999795,223.23670387499806,stand,correct,1.9891613339968899,left,226.25660116699873,
unstable,NA,stim_set/easy-vcom=2-73.png,226.2997310840001,227.34991525000078,fall,correct,1.051995290999912,right,230.36280262500077,
unstable,NA,stim_set/hard-vcom=2-95.png,230.4002662919993,232.6327456250001,stand,correct,2.2345410000016273,left,235.64616637499785,
unstable,NA,stim_set/hard-280.png,235.69446308400074,239.1376858750009,stand,correct,3.4520232920003764,left,242.15770037499897,
unstable,NA,stim_set/easy-164.png,242.2055909999981,244.8494222499976,stand,incorrect,2.644795750002231,left,247.86198887499995,
unstable,NA,stim_set/hard-vcom=4-88.png,247.90511304199754,249.42152320899913,stand,correct,1.5250127909966977,left,252.44139808399996,
unstable,NA,stim_set/easy-vcom=1-12.png,252.48886370900073,254.28369991699947,stand,correct,1.7958929169981275,left,257.29625925000073,
unstable,NA,stim_set/hard-600.png,257.33403654200083,258.8337135420006,stand,correct,1.501039957998728,left,261.8463656669992,
unstable,NA,stim_set/hard-vcom=4-22.png,261.8948265420004,265.9497928749988,stand,correct,4.055614459000935,left,268.96167499999865,
stable,fall,stim_set/hard-vcom=3-145.png,282.2684250839993,283.4500105419975,stand,incorrect,1.180888667000545,left,286.46244104200014,
stable,fall,stim_set/easy-vcom=3-121.png,286.5086487499975,291.15051041699917,stand,incorrect,4.642117291001341,left,294.16242129199964,
stable,fall,stim_set/hard-492.png,294.2076281669979,295.71658399999797,stand,correct,1.509869790999801,left,298.7293366669983,
stable,fall,stim_set/hard-599.png,298.7670541669977,299.93768825000006,stand,correct,1.1795895420000306,left,302.9584369999975,
stable,fall,stim_set/hard-vcom=4-132.png,303.0005109169979,304.91747258399846,fall,incorrect,1.9183114580009715,right,307.93072849999953,
stable,fall,stim_set/easy-344.png,307.97390024999913,308.98800800000026,fall,correct,1.0221650829989812,right,312.0082022919996,
stable,fall,stim_set/hard-vcom=2-100.png,312.0528377089977,312.8510654169986,stand,correct,0.7993084580011782,left,315.8642749589999,
stable,fall,stim_set/easy-8.png,315.9060109999991,316.6378804169981,fall,correct,0.7407704580000427,right,319.6587894589975,
stable,fall,stim_set/easy-233.png,319.7068153750006,320.5878983340008,fall,correct,0.8889952080025978,right,323.60786941699916,
stable,fall,stim_set/easy-11.png,323.6510950419979,324.50495145899913,fall,correct,0.8625061670027208,right,327.5253412919992,
stable,fall,stim_set/easy-195.png,327.569077791999,328.5879610839984,fall,correct,1.0276566249995085,right,331.6086965840004,
stable,fall,stim_set/hard-214.png,331.6558630420004,332.5887720419996,stand,correct,0.9417113330018765,left,335.60862570899917,
stable,fall,stim_set/hard-vcom=4-23.png,335.652663249999,336.7507579589983,stand,correct,1.0989044579982874,left,339.7633669169991,
stable,fall,stim_set/easy-vcom=3-106.png,339.8065593749998,341.9344796250007,stand,correct,2.1291028339983313,left,344.94717087499885,
stable,fall,stim_set/hard-369.png,344.98460195900043,348.7339081249993,stand,incorrect,3.7498725000004924,left,351.74669116699806,
stable,fall,stim_set/hard-576.png,351.78436783399957,354.58919858399895,stand,correct,2.8128801670027315,left,357.6086043340001,
stable,fall,stim_set/hard-vcom=1-95.png,357.6523672500007,358.50074441700053,stand,correct,0.849289834000956,left,361.51311895899926,
stable,fall,stim_set/easy-228.png,361.5507547499983,362.73484149999786,fall,correct,1.1861973750019388,right,365.7485401249978,
stable,fall,stim_set/hard-410.png,365.79618279200076,368.8724992919997,stand,incorrect,3.084944958998676,left,371.8928821249974,
stable,fall,stim_set/hard-vcom=3-143.png,371.9362429590001,374.3349710000002,stand,correct,2.4001933750005264,left,377.3476383339985,
stable,fall,stim_set/hard-vcom=3-82.png,377.39365470899793,378.40567495899813,stand,correct,1.0206826249996084,left,381.4256255420005,
stable,fall,stim_set/easy-239.png,381.47140274999765,385.60532208400036,fall,correct,4.142784792002203,right,388.6255119999987,
stable,fall,stim_set/easy-122.png,388.6692527919986,389.66771670899834,fall,incorrect,0.999644667001121,right,392.6802904590004,
stable,fall,stim_set/hard-vcom=1-130.png,392.7232384589988,397.66790895899976,stand,correct,4.9462621660022705,left,400.6814290839975,
stable,fall,stim_set/easy-vcom=1-87.png,400.72861070900035,403.60133587499877,stand,correct,2.8861201669969887,left,406.6264107089992,
unstable,stand,stim_set/hard-600.png,4.605183457999374,5.994266833000438,stand,correct,1.3955739999983052,left,9.013169750000088,
unstable,stand,stim_set/easy-304.png,9.058814708001591,11.239056000002165,fall,incorrect,2.1819618749977963,right,14.251877624999906,
unstable,stand,stim_set/hard-286.png,14.300673083002039,15.572203791001812,stand,correct,1.2723726669973985,left,18.584401083000557,
unstable,stand,stim_set/hard-vcom=2-95.png,18.621864458000346,20.611034207999182,stand,correct,1.9969006249993981,left,23.63003954099986,
unstable,stand,stim_set/hard-vcom=4-22.png,23.678927790999296,25.272353791002388,stand,correct,1.5951882500012289,left,28.285275707999972,
unstable,stand,stim_set/hard-555.png,28.329058250001253,29.739062708002166,stand,correct,1.4112973750015954,left,32.751870625001175,
unstable,stand,stim_set/hard-441.png,32.7940090000011,35.57239841599949,fall,correct,2.780272290998255,right,38.58529908300261,
unstable,stand,stim_set/hard-440.png,38.62953800000105,39.47254504100056,fall,correct,0.8436995420015592,right,42.48535925000033,
unstable,stand,stim_set/easy-586.png,42.530881165999745,44.056518833000155,fall,correct,1.5269335420016432,right,47.0699160410004,
unstable,stand,stim_set/easy-164.png,47.11775725000189,50.50594487499984,fall,correct,3.389393083001778,right,53.51912170799915,
unstable,stand,stim_set/hard-vcom=3-142.png,53.56694283300021,54.656505999999354,stand,correct,1.0909925829982967,left,57.66924291599935,
unstable,stand,stim_set/hard-78.png,57.71535195800243,60.527221457999985,stand,correct,2.821211583999684,left,63.54778337500102,
unstable,stand,stim_set/easy-542.png,63.59490091599946,66.30629324999973,fall,correct,2.7126114169986977,right,69.31860199999937,
unstable,stand,stim_set/hard-vcom=4-27.png,69.3672805410024,71.57756108300237,fall,correct,2.219495500001358,right,74.59804762500062,
unstable,stand,stim_set/hard-vcom=4-139.png,74.64152012500199,77.47346729100173,stand,correct,2.832926208000572,left,80.48584391600161,
unstable,stand,stim_set/hard-280.png,80.53374237500248,83.82758779100186,stand,correct,3.302340041998832,left,86.84729850000076,
unstable,stand,stim_set/easy-vcom=1-12.png,86.8946027910024,88.07833500000197,stand,correct,1.1917868750024354,left,91.09772466600043,
unstable,stand,stim_set/easy-411.png,91.14556566600004,92.15697804100273,fall,correct,1.0133918749997974,right,95.17035883300196,
unstable,stand,stim_set/hard-14.png,95.20815204099927,97.19002466600068,stand,incorrect,1.9836413340017316,left,100.20308758300234,
unstable,stand,stim_set/hard-vcom=4-147.png,100.25118750000183,101.99010691600051,stand,correct,1.7404564159987785,left,105.00307537499975,
unstable,stand,stim_set/easy-318.png,105.0488047079998,108.87375241600239,fall,correct,3.8262103750021197,right,111.88651066600141,
unstable,stand,stim_set/hard-vcom=1-92.png,111.93513220800014,113.71073887500097,stand,incorrect,1.7851471670001047,left,116.7319053329993,
unstable,stand,stim_set/hard-vcom=4-88.png,116.77480941600152,117.92399379100243,stand,correct,1.151161999998294,left,120.93723758300257,
unstable,stand,stim_set/easy-vcom=2-73.png,120.98029137500271,122.44032058300218,fall,correct,1.461299541999324,right,125.45287850000022,
unstable,stand,stim_set/easy-28.png,125.49874329100203,126.39042191599947,fall,correct,0.8934639170001901,right,129.4035649159996,
unstable,fall,stim_set/easy-vcom=1-12.png,141.5983899160019,143.45730395800274,stand,correct,1.8589112079971528,left,146.4695442910015,
unstable,fall,stim_set/easy-411.png,146.51586629099984,147.37432466600148,fall,correct,0.8597926670008746,right,150.38759508300063,
unstable,fall,stim_set/hard-vcom=4-27.png,150.43456941600016,153.09427250000226,fall,correct,2.668917708000663,right,156.1150146660002,
unstable,fall,stim_set/easy-304.png,156.15929750000214,157.77411904100154,fall,incorrect,1.616913249999925,right,160.7873315830002,
unstable,fall,stim_set/hard-280.png,160.83328029100085,162.51228904100208,stand,correct,1.687152333000995,left,165.5315799580021,
unstable,fall,stim_set/hard-vcom=4-139.png,165.57359983300194,167.77409479100243,stand,correct,2.201829458001157,left,170.7867191660007,
unstable,fall,stim_set/hard-440.png,170.829581375001,171.77397966600256,fall,correct,0.9462640410019958,right,174.7872368749995,
unstable,fall,stim_set/easy-164.png,174.83384241599924,177.59525587499957,fall,correct,2.7699696669988043,right,180.61492550000185,
unstable,fall,stim_set/hard-555.png,180.65751904100034,181.81143979099943,stand,correct,1.1631320000014966,left,184.83177937499931,
unstable,fall,stim_set/easy-318.png,184.8766086249998,187.22495212500144,fall,correct,2.3496519580003223,right,190.23733862500012,
unstable,fall,stim_set/hard-14.png,190.2733726660008,192.0412072500003,stand,incorrect,1.7694340000016382,left,195.05402162500104,
unstable,fall,stim_set/hard-78.png,195.09871804100112,196.29093408300105,stand,correct,1.1929886670004635,left,199.3029441660001,
unstable,fall,stim_set/hard-vcom=2-95.png,199.33880891599983,200.36302104100105,stand,correct,1.0322452910004358,left,203.38258295800188,
unstable,fall,stim_set/easy-542.png,203.42828937500235,205.79607337500056,fall,correct,2.376045749999321,right,208.81562479100103,
unstable,fall,stim_set/hard-vcom=4-88.png,208.85734758300168,209.89632820800034,stand,correct,1.0469032090004475,left,212.91595504100042,
unstable,fall,stim_set/hard-vcom=4-22.png,212.96283200000107,216.04110908300208,stand,correct,3.079588041000534,left,219.05366629100172,
unstable,fall,stim_set/easy-586.png,219.09792287500022,220.19146541600276,fall,correct,1.0947427920000337,right,223.2036508750025,
unstable,fall,stim_set/hard-600.png,223.24143870800253,224.84203137499935,stand,correct,1.6022256249998463,left,227.8542552910003,
unstable,fall,stim_set/hard-vcom=1-92.png,227.90114345800248,231.75850362500205,stand,incorrect,3.8587969170002907,left,234.77127058300175,
unstable,fall,stim_set/easy-vcom=2-73.png,234.81246412499968,238.3459412500015,fall,correct,3.54205649999858,right,241.36639112500052,
unstable,fall,stim_set/hard-vcom=3-142.png,241.4128509580005,242.59595395799988,stand,correct,1.1924378339972463,left,245.61630337500173,
unstable,fall,stim_set/hard-286.png,245.6631902500012,246.70815962500274,stand,correct,1.0461543340024946,left,249.72059333300058,
unstable,fall,stim_set/hard-441.png,249.76115050000226,252.55815229099971,stand,incorrect,2.797936415998265,left,255.5702362910015,
unstable,fall,stim_set/hard-vcom=4-147.png,255.6170862910003,257.07513825000206,stand,correct,1.4601917500003765,left,260.08834695800033,
unstable,fall,stim_set/easy-28.png,260.1326554160005,261.54215549999935,fall,correct,1.411290584001108,right,264.555125750001,
stable,NA,stim_set/hard-599.png,272.5351074579994,274.31377054100085,stand,correct,1.785543250000046,left,277.3330860410024,
stable,NA,stim_set/easy-122.png,277.3770609580024,278.1588300830008,fall,incorrect,0.7833434579988534,right,281.17184737500065,
stable,NA,stim_set/easy-vcom=3-121.png,281.2183480410022,282.64200512500247,stand,incorrect,1.4253870409993397,left,285.6549567910006,
stable,NA,stim_set/hard-214.png,285.70229191600083,287.7760423330001,stand,correct,2.0751589580031577,left,290.78901662499993,
stable,NA,stim_set/hard-492.png,290.8341600410022,291.8963380000023,stand,correct,1.0708094170004188,left,294.91660500000216,
stable,NA,stim_set/easy-233.png,294.96474187499916,295.92983945800006,fall,correct,0.9742121250019409,right,298.9504040409993,
stable,NA,stim_set/hard-410.png,298.9978635410007,301.75954816599915,stand,incorrect,2.7631651670017163,left,304.77232495800126,
stable,NA,stim_set/easy-vcom=3-106.png,304.8157961249999,305.69656195800053,stand,correct,0.8896483339995029,left,308.71663166600047,
stable,NA,stim_set/hard-vcom=1-95.png,308.7603609159996,313.76346566600114,NA,,,NA,625.8913998330027,
stable,NA,stim_set/hard-vcom=4-132.png,625.9343097910023,628.1161729580017,fall,incorrect,2.188451416001044,right,631.1352774580009,
stable,NA,stim_set/hard-369.png,631.1733670409994,635.1785161660009,stand,incorrect,4.0061808749997,left,638.1912036249996,
stable,NA,stim_set/easy-11.png,638.2354445410019,639.0453703750027,fall,correct,0.8117963340009737,right,642.0583409579995,
stable,NA,stim_set/hard-vcom=3-145.png,642.0961587910024,643.3287163330024,stand,incorrect,1.2341343340012827,left,646.3415851659993,
stable,NA,stim_set/easy-vcom=1-87.png,646.3884987500023,648.5162405830015,stand,correct,2.136550040999282,left,651.5362266660013,
stable,NA,stim_set/easy-195.png,651.5798271660024,652.9502100829995,fall,correct,1.378699166001752,right,655.970118958001,
stable,NA,stim_set/hard-vcom=3-143.png,656.0137490000016,657.8825400829992,stand,correct,1.8778218750012456,left,660.9028046660023,
stable,NA,stim_set/hard-576.png,660.9406329580015,662.5619676660026,stand,correct,1.6230890000006184,left,665.5750755000008,
stable,NA,stim_set/easy-239.png,665.6209093750003,666.6785460409992,fall,correct,1.058592540997779,right,669.6907320829996,
stable,NA,stim_set/easy-228.png,669.7283435000027,671.2998235410014,fall,correct,1.5800433750009688,right,674.3198822910017,
stable,NA,stim_set/hard-vcom=2-100.png,674.3645895830014,675.3327927080027,stand,correct,0.9770057919995452,left,678.3527267080026,
stable,NA,stim_set/easy-344.png,678.3962649580026,679.4119560830004,fall,correct,1.0174437079986092,right,682.4251650410006,
stable,NA,stim_set/hard-vcom=3-82.png,682.4712763749994,683.8167254580003,stand,correct,1.3539579579992278,left,686.8366211249995,
stable,NA,stim_set/easy-8.png,686.8788090830021,687.8615648750019,fall,correct,0.9838063749994035,right,690.874046416,
stable,NA,stim_set/hard-vcom=1-130.png,690.9167721660015,692.5456887910004,stand,correct,1.6305241670015675,left,695.5585125409998,
stable,NA,stim_set/hard-vcom=4-23.png,695.6026753750011,696.9669002500013,stand,correct,1.3728277499976684,left,699.9868067909993,
unstable,fall,stim_set/hard-vcom=3-142.png,4.843837959000666,6.201857500000187,stand,correct,1.3652908340009162,left,9.221844749998127,
unstable,fall,stim_set/easy-164.png,9.27000337500067,11.730316249999305,fall,correct,2.4622712079981284,right,14.743552208998153,
unstable,fall,stim_set/hard-vcom=1-92.png,14.791765292000491,16.90185662499789,stand,incorrect,2.1185729169992555,left,19.92158025000026,
unstable,fall,stim_set/hard-14.png,19.959188917000574,21.735923374999402,stand,incorrect,1.7845931659976486,left,24.75494904199877,
unstable,fall,stim_set/hard-78.png,24.800844417000917,26.013726583998505,stand,correct,1.2137626669973542,left,29.026260167000146,
unstable,fall,stim_set/hard-441.png,29.068301667000924,31.763821583997924,stand,incorrect,2.698144959002093,left,34.77782537500025,
unstable,fall,stim_set/easy-542.png,34.82483245899857,36.26838529199813,fall,correct,1.452531375001854,right,39.28891949999888,
unstable,fall,stim_set/hard-vcom=4-88.png,39.331677792000846,40.38117174999934,stand,correct,1.0505272909977066,left,43.39338745900022,
unstable,fall,stim_set/easy-318.png,43.43971312500071,46.88532162499905,fall,correct,3.4537912080013484,right,49.904889375000494,
unstable,fall,stim_set/easy-304.png,49.950339584000176,53.018935500000225,fall,incorrect,3.077274582999962,right,56.0387972919998,
unstable,fall,stim_set/hard-vcom=4-147.png,56.086948249998386,58.79736595899885,stand,correct,2.711493791997782,left,61.80982304200006,
unstable,fall,stim_set/hard-vcom=4-139.png,61.85326854199957,63.28137499999866,stand,correct,1.4294716250005877,left,66.2942671669989,
unstable,fall,stim_set/hard-vcom=2-95.png,66.33177733399862,67.469508416998,stand,correct,1.1459997499987367,left,70.48902583399831,
unstable,fall,stim_set/easy-411.png,70.53695774999869,72.31408449999799,fall,correct,1.7791267499997048,right,75.32749737500126,
unstable,fall,stim_set/hard-280.png,75.37514841699885,77.93630216699967,stand,correct,2.5690953750017798,left,80.95543254199947,
unstable,fall,stim_set/hard-vcom=4-22.png,81.00404945899936,82.74812904200007,stand,correct,1.7452572500005772,left,85.76081991699903,
unstable,fall,stim_set/hard-600.png,85.7985153749978,87.1975729170008,stand,correct,1.4006517499983602,left,90.21042133399897,
unstable,fall,stim_set/easy-vcom=1-12.png,90.257508374998,92.21433495900055,stand,correct,1.9585936250005034,left,95.22732874999929,
unstable,fall,stim_set/easy-586.png,95.27274879199831,96.50359608399958,fall,correct,1.2384539999984554,right,99.52238854199823,
unstable,fall,stim_set/easy-vcom=2-73.png,99.56524866700056,103.71512537499802,fall,correct,4.151720583999122,right,106.728404958998,
unstable,fall,stim_set/hard-286.png,106.77715620899835,107.65275170899986,stand,correct,0.8843010839991621,left,110.67301208400022,
unstable,fall,stim_set/easy-28.png,110.71851874999993,111.73660804199972,fall,correct,1.0258546670011128,right,114.75536604199806,
unstable,fall,stim_set/hard-vcom=4-27.png,114.80444575000001,116.91513024999949,fall,correct,2.111846540999977,right,119.92755166699862,
unstable,fall,stim_set/hard-555.png,119.97122074999788,120.98191154199958,stand,correct,1.0115201660009916,left,123.99382266699831,
unstable,fall,stim_set/hard-440.png,124.037896834001,124.91940020900074,fall,correct,0.8902835829976539,right,127.93946954199782,
stable,stand,stim_set/easy-538.png,134.6789645839999,135.56544695900084,fall,correct,0.8861043340002652,right,138.57819629200094,
stable,stand,stim_set/hard-367.png,138.62277995899785,139.49846591700043,stand,correct,0.8767677910000202,left,142.5113614590009,
stable,stand,stim_set/hard-vcom=2-45.png,142.54925787499815,143.43215370899998,fall,correct,0.8844624589983141,right,146.44467112499842,
stable,stand,stim_set/easy-vcom=4-69.png,146.49164679200112,147.59868791699773,fall,correct,1.1082277499990596,right,150.61129816700122,
stable,stand,stim_set/easy-vcom=2-3.png,150.6569402919995,152.11566216699794,stand,incorrect,1.460169166999549,left,155.12861662499927,
stable,stand,stim_set/hard-451.png,155.17492320900055,156.09852537500046,fall,correct,0.9250869999996212,right,159.11127029199997,
stable,stand,stim_set/hard-vcom=4-67.png,159.1554598340008,160.8201758340001,fall,correct,1.672964208999474,right,163.83952054199835,
stable,stand,stim_set/hard-vcom=2-16.png,163.888247709001,165.4694289170002,stand,correct,1.5901925420002954,left,168.48966941699837,
stable,stand,stim_set/easy-vcom=1-73.png,168.52773354199962,170.92043062499943,stand,correct,2.400906582999596,left,173.94022595899878,
stable,stand,stim_set/easy-63.png,173.98339512500024,174.8822056249992,fall,correct,0.9005364580007154,right,177.8951034169986,
stable,stand,stim_set/hard-vcom=1-3.png,177.93977212499885,178.95392604199878,stand,correct,1.0226354999977048,left,181.9734127499978,
stable,stand,stim_set/hard-vcom=4-130.png,182.0174464169977,185.74915595899802,stand,incorrect,3.7336763749990496,left,188.7624154590012,
stable,stand,stim_set/easy-vcom=1-83.png,188.80001629199978,190.753652667001,stand,correct,1.9624358339970058,left,193.77379112500057,
stable,stand,stim_set/hard-570.png,193.82200670900056,194.99895262499922,stand,correct,1.1781766249987413,left,198.01135283400072,
stable,stand,stim_set/hard-474.png,198.05472762499994,199.48256633399797,fall,correct,1.4298854580010811,right,202.4957887499986,
stable,stand,stim_set/hard-563.png,202.54490079199968,204.22070962499856,stand,correct,1.6841912909985695,left,207.24047191700083,
stable,stand,stim_set/easy-vcom=3-125.png,207.28874854199967,209.6324865839997,fall,incorrect,2.346036250000907,right,212.64599904200077,
stable,stand,stim_set/hard-40.png,212.6922862499996,213.89935304200117,stand,correct,1.2083841250023397,left,216.91190862499934,
stable,stand,stim_set/easy-280.png,216.9554477499987,217.80412408399934,fall,correct,0.8565693330019712,right,220.82318504199793,
stable,stand,stim_set/easy-31.png,220.8692453750009,221.98220470899832,fall,incorrect,1.114178208001249,right,224.9945606250003,
stable,stand,stim_set/easy-vcom=4-126.png,225.0427332500003,226.4994485419993,fall,correct,1.4581959159986582,right,229.5121068749977,
stable,stand,stim_set/easy-vcom=3-142.png,229.55842737499916,231.12118091699813,stand,correct,1.5704294579991256,left,234.14071612499902,
stable,stand,stim_set/easy-590.png,234.18941658399854,235.28244962499957,fall,correct,1.0942713340009504,right,238.2949456669994,
stable,stand,stim_set/hard-vcom=4-45.png,238.34086470900002,239.3661799170004,stand,incorrect,1.0267117920011515,left,242.37874300000112,
stable,stand,stim_set/easy-20.png,242.42253849999906,243.6545269169983,fall,correct,1.240662832999078,right,246.67419004199837,
stable,NA,stim_set/easy-239.png,251.81059545899916,253.38277295900116,fall,correct,1.572221249996801,right,256.39537500000006,
stable,NA,stim_set/hard-vcom=3-145.png,256.43228391699813,257.5660468749993,stand,incorrect,1.1353842499993334,left,260.5787279590004,
stable,NA,stim_set/easy-11.png,260.62105404199974,261.38345216699963,fall,correct,0.7640859580023971,right,264.39639854199777,
stable,NA,stim_set/hard-369.png,264.4325929170009,266.9666724589988,fall,correct,2.5354382500008796,right,269.9792845839984,
stable,NA,stim_set/hard-vcom=1-95.png,270.0229776669985,271.15441091699904,stand,correct,1.140433791999385,left,274.17479275000005,
stable,NA,stim_set/hard-214.png,274.22258008399876,275.3213617090005,stand,correct,1.1073444170033326,left,278.34109237499797,
stable,NA,stim_set/easy-8.png,278.3815787499989,279.5715331249994,fall,correct,1.198244999999588,right,282.5915757920011,
stable,NA,stim_set/hard-vcom=4-132.png,282.6325745840004,283.5003255419979,fall,incorrect,0.8694666669980506,right,286.5133985419998,
stable,NA,stim_set/hard-vcom=2-100.png,286.5564919589997,287.51689704199816,stand,correct,0.9613924169971142,left,290.52910616699955,
stable,NA,stim_set/easy-vcom=3-106.png,290.57268312499946,292.1831803749992,stand,correct,1.6122369579970837,left,295.19630804199915,
stable,NA,stim_set/hard-599.png,295.233872083998,296.6882988750003,stand,correct,1.462924874998862,left,299.70805904200097,
stable,NA,stim_set/hard-vcom=4-23.png,299.75073537500066,302.71671283400065,stand,correct,2.96796304199961,left,305.72982629200123,
stable,NA,stim_set/easy-vcom=1-87.png,305.7757053339992,308.03821241699916,stand,correct,2.2711767079999845,left,311.05816824999783,
stable,NA,stim_set/easy-344.png,311.0999671669997,313.58384720899994,fall,correct,2.484847792002256,right,316.5962861250009,
stable,NA,stim_set/hard-vcom=3-143.png,316.638279625,317.9044935419988,stand,correct,1.275310917000752,left,320.9247045419979,
stable,NA,stim_set/hard-492.png,320.97052295899994,322.2881449589986,stand,correct,1.3264826250015176,left,325.3088481249979,
stable,NA,stim_set/hard-vcom=1-130.png,325.3508729999994,328.30557508399943,stand,correct,2.9626087920005375,left,331.32466941700113,
stable,NA,stim_set/easy-228.png,331.36103424999965,332.5210627089982,fall,correct,1.169433458999265,right,335.5418920000011,
stable,NA,stim_set/easy-122.png,335.5857658339992,337.0007133750005,fall,incorrect,1.4162281669996446,right,340.01304425000126,
stable,NA,stim_set/easy-vcom=3-121.png,340.0594665839999,344.3509370840002,stand,incorrect,4.292690624999523,left,347.36336708399904,
stable,NA,stim_set/easy-233.png,347.4116905839983,348.1376489590002,fall,correct,0.735569165997731,right,351.1584267920007,
stable,NA,stim_set/hard-410.png,351.2058779170002,353.3676541669993,stand,incorrect,2.163484291999339,left,356.3804397089989,
stable,NA,stim_set/easy-195.png,356.4228272500004,357.30111150000084,fall,correct,0.880079750000732,right,360.3142344589978,
stable,NA,stim_set/hard-vcom=3-82.png,360.35896325000067,361.1723806250011,stand,correct,0.8215942499991797,left,364.19190954199803,
stable,NA,stim_set/hard-576.png,364.2283888339989,366.0887717919977,stand,correct,1.8693316659991979,left,369.10883883399947,
