batch_type,motivation,towers,trial_start,stim_on,choice,acc,rt,key,trial_end,score
stable,stand,stim_set/easy-31.png,8.37337416599621,10.380466875009006,fall,incorrect,2.0081132499908563,right,13.397359374997905,194.0
stable,stand,stim_set/hard-474.png,13.441369208012475,15.311442500009434,fall,correct,1.8758838750072755,right,18.327494958008174,
stable,stand,stim_set/hard-vcom=4-130.png,18.371643249993213,21.254676375014242,fall,correct,2.8942905839940067,right,24.2759152080107,
stable,stand,stim_set/easy-vcom=3-125.png,24.32419633300742,26.388463790994138,fall,incorrect,2.074963791994378,right,29.40967587500927,
stable,stand,stim_set/easy-vcom=1-73.png,29.447478457994293,30.670055458002025,stand,correct,1.2284687499923166,left,33.68654104101006,
stable,stand,stim_set/hard-vcom=4-45.png,33.73218354099663,35.52093345799949,fall,correct,1.8018079579924233,right,38.556054208020214,
stable,stand,stim_set/easy-vcom=1-83.png,38.593592958000954,39.603501583012985,stand,correct,1.01582875000895,left,42.61996591600473,
stable,stand,stim_set/easy-538.png,42.66241829100181,43.78660687501542,fall,correct,1.130184666981222,right,46.80267858301522,
stable,stand,stim_set/easy-63.png,46.8471155409934,47.59502966600121,fall,correct,0.7532723750045989,right,50.61193129100138,
stable,stand,stim_set/easy-280.png,50.65602308299276,51.403283082996495,fall,correct,0.7526790419942699,right,54.42016516599688,
stable,stand,stim_set/easy-vcom=4-126.png,54.468023082998116,59.23005495799589,stand,incorrect,4.773239707981702,left,62.25237879101769,
stable,stand,stim_set/hard-vcom=4-67.png,62.29633795801783,65.35472629099968,stand,incorrect,3.0695675419992767,left,68.37611804099288,
stable,stand,stim_set/hard-367.png,68.42038950001006,69.90530183300143,stand,correct,1.4954677500063553,left,72.9263812499994,
stable,stand,stim_set/easy-vcom=2-3.png,72.97202687500976,75.48001008300344,stand,incorrect,2.518981792003615,left,78.50152720801998,
stable,stand,stim_set/hard-570.png,78.54990587499924,79.65324237500317,stand,correct,1.10965812500217,left,82.6700331250031,
stable,stand,stim_set/hard-vcom=2-45.png,82.70719633300905,84.42185979100759,fall,correct,1.7254861670080572,right,87.44286020801519,
stable,stand,stim_set/hard-563.png,87.49126533299568,89.52001920799376,stand,correct,2.034315750002861,left,92.53634575000615,
stable,stand,stim_set/hard-vcom=1-3.png,92.58083275001263,94.22831062501064,stand,correct,1.653083459008485,left,97.24440645801951,
stable,stand,stim_set/easy-vcom=4-69.png,97.29150004099938,99.52005216601538,fall,correct,2.234942459006561,right,102.53693345800275,
stable,stand,stim_set/hard-40.png,102.58316041601938,106.37182250001933,stand,correct,3.799583749991143,left,109.39297712501138,
stable,stand,stim_set/hard-vcom=2-16.png,109.44182895802078,112.13052266600425,fall,incorrect,2.699412666988792,right,115.15176933299517,
stable,stand,stim_set/easy-vcom=3-142.png,115.19721191600547,119.22006433299975,fall,incorrect,4.028641833021538,right,122.2364120830025,
stable,stand,stim_set/easy-20.png,122.27998379099881,124.00354904099368,fall,correct,1.7292217499925755,right,127.01931145801791,
stable,stand,stim_set/easy-590.png,127.06731587499962,129.1801477500121,fall,correct,2.1236453330202494,right,132.20136999999522,
stable,stand,stim_set/hard-451.png,132.24730383299175,134.2200840410078,fall,correct,1.9785857090028003,right,137.23584416601807,
unstable,fall,stim_set/easy-13.png,182.00240741600282,183.7032505410025,fall,correct,1.7050675420032348,right,186.7195909160073,
unstable,fall,stim_set/hard-388.png,186.75770858299802,190.51181925000856,stand,correct,3.7597149170178454,left,193.52868950000266,
unstable,fall,stim_set/easy-121.png,193.57683491602074,197.21378962500603,fall,incorrect,3.647571292007342,right,200.23514158301987,
unstable,fall,stim_set/hard-590.png,200.28183716599597,201.6469040410011,fall,correct,1.37594637501752,right,204.6679753329954,
unstable,fall,stim_set/hard-552.png,204.7143944160198,207.5615476660023,stand,correct,2.8534752919804305,left,210.57873825001298,
unstable,fall,stim_set/hard-556.png,210.6218485830177,214.5368123750086,stand,correct,3.921156416006852,left,217.55334124999354,
unstable,fall,stim_set/easy-vcom=4-19.png,217.60070645800442,219.8133885000134,fall,correct,2.2238408330013044,right,222.83483437501127,
unstable,fall,stim_set/easy-vcom=1-145.png,222.88060070801293,224.51323375001084,stand,correct,1.6434094999858644,left,227.53461637499277,
unstable,fall,stim_set/hard-vcom=3-100.png,227.57834599999478,230.86363033301313,stand,incorrect,3.296339958993485,left,233.88451395800803,
unstable,fall,stim_set/hard-382.png,233.9219959579932,235.24508304099436,stand,correct,1.3282677919778507,left,238.26078279101057,
unstable,fall,stim_set/hard-432.png,238.3087819160137,239.37186320801266,fall,correct,1.0741624170041177,right,242.39334895799402,
unstable,fall,stim_set/easy-vcom=3-136.png,242.4345717910037,245.33673808301683,fall,incorrect,2.907828666997375,right,248.35283137499937,
unstable,fall,stim_set/hard-442.png,248.40038016601466,250.2532520829991,fall,incorrect,1.8590465419983957,right,253.26978262499324,
unstable,fall,stim_set/hard-vcom=1-5.png,253.31272466600058,256.26182679101476,stand,correct,2.9547440000169445,left,259.27838375000283,
unstable,fall,stim_set/hard-345.png,259.3214697079966,260.3285209159949,fall,correct,1.01250316601363,right,263.3447447080107,
unstable,fall,stim_set/hard-439.png,263.3886939160002,264.8118322500086,fall,correct,1.4286469999933615,right,267.8279226250015,
unstable,fall,stim_set/easy-vcom=4-4.png,267.87175120800384,268.82012762501836,fall,correct,0.9542571670026518,right,271.8369360830111,
unstable,fall,stim_set/hard-2.png,271.8825962500123,275.7617712079955,stand,correct,3.885035416984465,left,278.77789095800836,
unstable,fall,stim_set/hard-vcom=2-20.png,278.8244438749971,279.7535314580018,stand,correct,0.9352274580160156,left,282.76984291599365,
unstable,fall,stim_set/hard-82.png,282.81558337502065,287.8202366250043,NA,,,NA,293.52493441599654,
unstable,fall,stim_set/hard-21.png,293.56770658300957,296.1950953330088,stand,correct,2.6328135000076145,left,299.2115358330193,
unstable,fall,stim_set/hard-371.png,299.24849804100813,300.12011849999544,fall,incorrect,0.8776725420029834,right,303.1360051660158,
unstable,fall,stim_set/hard-vcom=2-144.png,303.17366475000745,304.7952630830114,fall,correct,1.6279550839972217,right,307.81154729099944,
unstable,fall,stim_set/easy-77.png,307.8550366249983,308.76357450001524,fall,correct,0.9200620409974363,right,311.7845762500074,
unstable,fall,stim_set/hard-271.png,311.8315961660119,313.76182054099627,fall,incorrect,1.9359752089949325,right,316.7776811250078,
stable,NA,stim_set/hard-599.png,372.99866995800403,376.47025591600686,stand,correct,3.4729706670041196,left,379.4866691660136,
stable,NA,stim_set/hard-vcom=4-132.png,379.52823187501053,380.55361895801616,fall,incorrect,1.0317008749989327,right,383.5700078330119,
stable,NA,stim_set/hard-vcom=3-82.png,383.6156791250105,385.8800449160044,stand,correct,2.275344249996124,left,388.9018882079981,
stable,NA,stim_set/hard-214.png,388.9495206660067,392.13830049999524,stand,correct,3.199843417009106,left,395.1599778330128,
stable,NA,stim_set/hard-vcom=1-95.png,395.20354524999857,396.57015204100753,fall,incorrect,1.3723699589900207,right,399.5862971250026,
stable,NA,stim_set/hard-vcom=3-143.png,399.6294681660074,401.3785157079983,fall,incorrect,1.754636333003873,right,404.3946498330042,
stable,NA,stim_set/hard-vcom=4-23.png,404.4387298329966,406.39723758300534,fall,incorrect,1.968814374995418,right,409.4178026659938,
stable,NA,stim_set/hard-vcom=3-145.png,409.45536216601613,412.3118364160182,fall,correct,2.861810375005007,right,415.3272892080131,
stable,NA,stim_set/easy-122.png,415.37120304099517,416.3550385000126,fall,incorrect,0.9943526669812854,right,419.3762119160092,
stable,NA,stim_set/hard-576.png,419.4141360000067,421.6118823750003,fall,incorrect,2.2036035410128534,right,424.62812579100137,
stable,NA,stim_set/easy-vcom=3-121.png,424.67446787501103,427.4284829160024,stand,incorrect,2.7597406250133645,left,430.44486275000963,
stable,NA,stim_set/easy-8.png,430.48699062500964,431.39655754101113,fall,correct,0.920721708011115,right,434.41766487501445,
stable,NA,stim_set/hard-vcom=1-130.png,434.46056066601886,437.446662708011,stand,correct,2.9972209999978077,left,440.46759220800595,
stable,NA,stim_set/easy-344.png,440.5101012499945,441.6867836250167,fall,correct,1.1827072500018403,right,444.70293483301066,
stable,NA,stim_set/hard-410.png,444.74981320800725,447.53842300002,fall,correct,2.799705957993865,right,450.56010487501044,
stable,NA,stim_set/easy-195.png,450.60351266601356,451.6532574160083,fall,correct,1.0555704579746816,right,454.6692238750111,
stable,NA,stim_set/easy-vcom=3-106.png,454.7131144159939,456.82010729101603,stand,correct,2.112770832987735,left,459.8359773750126,
stable,NA,stim_set/easy-11.png,459.8790987910179,461.2131470410095,fall,correct,1.3453449590015225,right,464.2343287499971,
stable,NA,stim_set/easy-vcom=1-87.png,464.28098358301213,465.3383726250031,fall,incorrect,1.0688170829962473,right,468.3597936659935,
stable,NA,stim_set/hard-369.png,468.39721395800007,469.87850462499773,fall,correct,1.4870750000118278,right,472.89440587500576,
stable,NA,stim_set/hard-492.png,472.939257207996,475.21182791600586,stand,correct,2.278739333007252,left,478.228072124999,
stable,NA,stim_set/easy-239.png,478.2734433330188,481.91354800001136,fall,correct,3.6508058329927735,right,484.93460241600405,
stable,NA,stim_set/easy-228.png,484.97249849999207,487.1950697080174,fall,correct,2.2284355410083663,right,490.2114432080125,
stable,NA,stim_set/hard-vcom=2-100.png,490.2554690830002,493.9125729580119,stand,correct,3.668536832992686,left,496.9346105000004,
stable,NA,stim_set/easy-233.png,496.9825757080107,498.4368020410184,fall,correct,1.4599023339978885,right,501.4533630410151,
unstable,stand,stim_set/hard-vcom=2-144.png,5.459709124988876,7.204339791991515,fall,correct,1.749208124994766,right,10.220037082995987,
unstable,stand,stim_set/hard-vcom=1-5.png,10.261541499989107,12.562530124996556,fall,incorrect,2.306864875019528,right,15.578208708000602,
unstable,stand,stim_set/hard-371.png,15.614093874988612,19.28756674999022,fall,incorrect,3.6797241670137737,right,22.304104792012367,
unstable,stand,stim_set/hard-552.png,22.34859391700593,25.87077020801371,stand,correct,3.527766499988502,left,28.886734208004782,
unstable,stand,stim_set/hard-382.png,28.922772374993656,32.38050316699082,stand,correct,3.468824625015259,left,35.40202816700912,
unstable,stand,stim_set/easy-vcom=4-4.png,35.444530000007944,38.42056179200881,fall,correct,2.98235224999371,right,41.43753829199704,
unstable,stand,stim_set/hard-82.png,41.48219983300078,45.03756324999267,stand,correct,3.5608011659933254,left,48.05345541698625,
unstable,stand,stim_set/hard-432.png,48.09958825001377,49.59724770800676,fall,correct,1.508625624992419,right,52.619253457989544,
unstable,stand,stim_set/easy-121.png,52.666656957997475,55.09582891699392,fall,incorrect,2.4353620410256553,right,58.112461082986556,
unstable,stand,stim_set/easy-vcom=1-145.png,58.156515625014435,60.737588457996026,stand,correct,2.587032959010685,left,63.753968875011196,
unstable,stand,stim_set/hard-442.png,63.80009425000753,66.1474167080014,fall,incorrect,2.3585858330188785,right,69.16896512499079,
unstable,stand,stim_set/easy-vcom=3-136.png,69.20866154201212,72.26257799999439,fall,incorrect,3.0596261250029784,right,75.27870150000672,
unstable,stand,stim_set/hard-590.png,75.32384787499905,76.7641724999994,fall,correct,1.4511999579844996,right,79.78550408300362,
unstable,stand,stim_set/easy-vcom=4-19.png,79.83188737501041,81.89771016698796,fall,correct,2.076006499992218,right,84.91850945798797,
unstable,stand,stim_set/hard-vcom=2-20.png,84.96413504201337,86.21253787499154,stand,correct,1.2546220000076573,left,89.2294638750027,
unstable,stand,stim_set/hard-556.png,89.27017745800549,91.87082025001291,stand,correct,2.606668374995934,left,94.88715799999773,
unstable,stand,stim_set/hard-21.png,94.92841916700127,97.31438679198618,stand,correct,2.396422582998639,left,100.33539758299594,
unstable,stand,stim_set/hard-2.png,100.37997245800216,103.35410187501111,stand,correct,2.9805678330012597,left,106.37100004201056,
unstable,stand,stim_set/easy-77.png,106.41308512500837,107.36241070801043,fall,correct,0.9553005830093753,right,110.37880758300889,
unstable,stand,stim_set/hard-271.png,110.42441199999303,112.0641888329992,fall,incorrect,1.6504929999937303,right,115.08556004200364,
unstable,stand,stim_set/hard-388.png,115.12230433299555,117.19568875001278,stand,correct,2.0793170839897357,left,120.21182075000252,
unstable,stand,stim_set/hard-439.png,120.25426895800047,121.8793106249941,fall,correct,1.6310505410074256,right,124.89576620800653,
unstable,stand,stim_set/hard-345.png,124.9374001249962,125.98757950001163,fall,correct,1.0560610420070589,right,129.00405533300363,
unstable,stand,stim_set/hard-vcom=3-100.png,129.0460160000075,132.18052491699927,fall,correct,3.14531820800039,right,135.2018410419987,
unstable,stand,stim_set/easy-13.png,135.24889874999644,136.9557990829926,fall,correct,1.7177647500066087,right,139.97702670798753,
unstable,NA,stim_set/easy-411.png,160.92713879200164,162.70427891699364,fall,correct,1.7819805000035558,right,165.7204057080089,
unstable,NA,stim_set/easy-542.png,165.76694866700564,166.63919108299888,fall,correct,0.8837795420258772,right,169.66048304201104,
unstable,NA,stim_set/hard-280.png,169.70797891699476,171.83755679198657,fall,incorrect,2.1353819579817355,right,174.8532570420066,
unstable,NA,stim_set/easy-318.png,174.89887512501446,178.5043502500048,fall,correct,3.611634792003315,right,181.52038845801144,
unstable,NA,stim_set/hard-14.png,181.55744766700082,183.7292854170082,fall,correct,2.17749833400012,right,186.7452201670094,
unstable,NA,stim_set/hard-vcom=4-139.png,186.78955912499805,189.01253912498942,stand,correct,2.2287973329948727,left,192.02907791698817,
unstable,NA,stim_set/easy-164.png,192.076777417009,194.1042774580128,fall,correct,2.032610292022582,right,197.11996599999839,
unstable,NA,stim_set/hard-vcom=3-142.png,197.1676136669994,200.41425633299514,fall,incorrect,3.2574294579972047,right,203.43639345798874,
unstable,NA,stim_set/hard-286.png,203.48452862500562,206.78755516698584,stand,correct,3.3097367910086177,left,209.80423270800384,
unstable,NA,stim_set/hard-vcom=4-147.png,209.85281708301045,213.0293126250035,stand,correct,3.1823250830057077,left,216.0453729169967,
unstable,NA,stim_set/hard-vcom=4-88.png,216.0883615000057,218.94788133300608,fall,incorrect,2.869878041004995,right,221.96847341698594,
unstable,NA,stim_set/hard-600.png,222.00615349999862,224.98897637499613,fall,incorrect,2.993688167014625,right,228.0104763749987,
unstable,NA,stim_set/easy-586.png,228.05674545798684,230.51485529198544,fall,correct,2.4682018329913262,right,233.53581004199805,
unstable,NA,stim_set/easy-304.png,233.5815657080093,234.65433379198657,fall,incorrect,1.0788893749995623,right,237.67041920800693,
unstable,NA,stim_set/hard-441.png,237.7125810419966,239.19576145798783,fall,correct,1.4889544160105288,right,242.2119761669892,
unstable,NA,stim_set/hard-vcom=4-22.png,242.26030112500302,244.57909654200193,fall,incorrect,2.3250455829838756,right,247.5954876249889,
unstable,NA,stim_set/hard-78.png,247.64123362500686,251.20400666698697,fall,incorrect,3.5689494170073885,right,254.2205256249872,
unstable,NA,stim_set/easy-28.png,254.26655287499307,255.4460365420091,fall,correct,1.1851688750030007,right,258.4614838330017,
unstable,NA,stim_set/hard-vcom=4-27.png,258.5098517499864,259.88126066699624,fall,correct,1.3815413330157753,right,262.9022390420141,
unstable,NA,stim_set/hard-vcom=2-95.png,262.94037241701153,265.39770791699993,stand,correct,2.4683097089873627,left,268.4189267499896,
unstable,NA,stim_set/easy-vcom=1-12.png,268.4661477920017,270.6793472499994,stand,correct,2.218651040981058,left,273.6956155830121,
unstable,NA,stim_set/hard-vcom=1-92.png,273.74330733300303,277.62104137500864,stand,incorrect,3.8841766249970533,left,280.64029429201037,
unstable,NA,stim_set/hard-555.png,280.68400649999967,283.5875927080051,stand,correct,2.909796624997398,left,286.6042708749883,
unstable,NA,stim_set/hard-440.png,286.64799020800274,287.9805431670102,fall,correct,1.3437000410049222,right,291.00247416700586,
unstable,NA,stim_set/easy-vcom=2-73.png,291.0452498749946,293.7958969580068,fall,correct,2.756345790985506,right,296.81242974998895,
stable,fall,stim_set/hard-369.png,304.34050629200647,306.31278841700987,fall,correct,1.977049499982968,right,309.3295458329958,
stable,fall,stim_set/easy-344.png,309.3716907920025,310.3808697919885,fall,correct,1.0201440840028226,right,313.4024138750101,
stable,fall,stim_set/easy-8.png,313.4433063750039,314.9043157080014,fall,correct,1.4669752499903552,right,317.9206643330108,
stable,fall,stim_set/hard-vcom=4-132.png,317.96158354199724,318.78761591701186,fall,incorrect,0.8320832079916727,right,321.8039517499856,
stable,fall,stim_set/easy-239.png,321.84898412501207,322.6124454170058,fall,correct,0.7696009160135873,right,325.6289394169871,
stable,fall,stim_set/hard-492.png,325.673464624997,326.70595375000266,fall,incorrect,1.0433028749830555,right,329.7271836249856,
stable,fall,stim_set/hard-vcom=4-23.png,329.76989683299325,332.2060094169865,fall,incorrect,2.446896250010468,right,335.22700416701264,
stable,fall,stim_set/hard-vcom=3-82.png,335.2721367079939,337.29604749998543,fall,incorrect,2.0292993749899324,right,340.3116651670134,
stable,fall,stim_set/hard-vcom=3-143.png,340.3540728329972,342.80458487500437,fall,incorrect,2.4556603750097565,right,345.8200924170087,
stable,fall,stim_set/hard-214.png,345.86672545800684,347.85635983300745,fall,incorrect,2.000109707994852,right,350.877222332987,
stable,fall,stim_set/hard-410.png,350.9236665829958,353.72933991698665,fall,correct,2.8113184579997323,right,356.74562562498613,
stable,fall,stim_set/easy-vcom=1-87.png,356.79169237500173,358.11282400001073,fall,incorrect,1.32688758301083,right,361.12883504200727,
stable,fall,stim_set/hard-vcom=1-95.png,361.17155054199975,363.7712848749943,fall,incorrect,2.605143541994039,right,366.7876595419948,
stable,fall,stim_set/hard-vcom=1-130.png,366.82962287499686,370.114732291986,stand,correct,3.2959180000179913,left,373.1359768330003,
stable,fall,stim_set/easy-vcom=3-106.png,373.1787048749975,374.77950208299444,stand,correct,1.606829915981507,left,377.79554183300934,
stable,fall,stim_set/easy-11.png,377.83827016700525,379.0479009170085,fall,correct,1.2204925830010325,right,382.06860466700164,
stable,fall,stim_set/easy-122.png,382.11205545801204,382.96279804199,fall,incorrect,0.8556359589856584,right,385.97883183299564,
stable,fall,stim_set/hard-vcom=3-145.png,386.01543508301256,387.81278020801255,fall,correct,1.803133625013288,right,390.8288360830047,
stable,fall,stim_set/easy-vcom=3-121.png,390.8740393749904,392.30638370799716,fall,correct,1.443106541002635,right,395.327432207996,
stable,fall,stim_set/easy-228.png,395.36405674999696,396.24783124998794,fall,correct,0.8943494170089252,right,399.268569250009,
stable,fall,stim_set/hard-576.png,399.30549858300947,400.43972704198677,fall,incorrect,1.1447111669986043,right,403.46076258301036,
stable,fall,stim_set/hard-vcom=2-100.png,403.5042187079962,405.879522208008,stand,correct,2.381501041993033,left,408.8955240829964,
stable,fall,stim_set/hard-599.png,408.9326970829861,411.3296280420036,stand,correct,2.4029805829923134,left,414.3464389999863,
stable,fall,stim_set/easy-233.png,414.39412633300526,415.41268700000364,fall,correct,1.02439454200794,right,418.42892866701004,
stable,fall,stim_set/easy-195.png,418.4716279580025,419.62129220800125,fall,correct,1.1551736659894232,right,422.63697541700094,
stable,fall,stim_set/hard-vcom=2-100.png,6.009817000012845,8.692857707996154,fall,incorrect,2.692585666984087,right,11.713938333006809,
stable,fall,stim_set/easy-8.png,11.753894958004821,12.557653750001919,fall,correct,0.8094021669821814,right,15.573513333016308,
stable,fall,stim_set/hard-214.png,15.619444541021949,17.708879041019827,fall,incorrect,2.100698124995688,right,20.730374000006123,
stable,fall,stim_set/hard-369.png,20.76630825002212,22.451045041001635,fall,correct,1.6948200000042561,right,25.472301166009856,
stable,fall,stim_set/hard-vcom=3-82.png,25.516577916016104,27.923929833021248,fall,incorrect,2.413291000004392,right,30.940349875018,
stable,fall,stim_set/easy-195.png,30.982090541016078,32.25756487500621,fall,correct,1.2811292090045754,right,35.273376541008474,
stable,fall,stim_set/hard-vcom=1-95.png,35.31471216600039,37.50096191599732,fall,incorrect,2.1976792499772273,right,40.52211929101031,
stable,fall,stim_set/easy-vcom=3-121.png,40.56671179100522,43.940784458012786,fall,correct,3.379328750015702,right,46.95644624999841,
stable,fall,stim_set/easy-233.png,47.002880041021854,47.93258729099762,fall,correct,0.9352947910083458,right,50.94836995800142,
stable,fall,stim_set/easy-11.png,50.99011541600339,52.000951207999606,fall,correct,1.021585333015537,right,55.022902166005224,
stable,fall,stim_set/easy-344.png,55.06435150001198,55.949309457995696,fall,correct,0.8904407500231173,right,58.96489079101593,
stable,fall,stim_set/easy-vcom=3-106.png,59.006612291006604,61.50742999999784,stand,correct,2.5065236249938607,left,64.52413366601104,
stable,fall,stim_set/hard-vcom=1-130.png,64.5655738330097,66.51578350001364,stand,correct,1.956962124997517,left,69.53260791601497,
stable,fall,stim_set/easy-122.png,69.5747839579999,70.5086869999941,fall,incorrect,0.9454234159784392,right,73.53054079102003,
stable,fall,stim_set/hard-492.png,73.57382445799885,76.65952108299825,stand,correct,3.096386709017679,left,79.6804957910208,
stable,fall,stim_set/hard-vcom=3-143.png,79.72204774999409,82.97431233301177,stand,correct,3.257155416009482,left,85.99421862501185,
stable,fall,stim_set/easy-228.png,86.02992812500452,86.98255162499845,fall,correct,0.9583638329932,right,89.99850087499362,
stable,fall,stim_set/hard-576.png,90.03431816599914,91.25767358302255,fall,incorrect,1.228800915996544,right,94.2733555000159,
stable,fall,stim_set/hard-599.png,94.30902683301247,96.64295929099899,fall,incorrect,2.3441247919981834,right,99.66380129099707,
stable,fall,stim_set/hard-vcom=4-132.png,99.7047313330113,101.74086333301966,fall,incorrect,2.0419642079796176,right,104.75695841599372,
stable,fall,stim_set/easy-vcom=1-87.png,104.8023744999955,107.95767958302167,fall,incorrect,3.1609064590011258,right,110.97359795801458,
stable,fall,stim_set/hard-410.png,111.01968579101958,113.20945145800943,fall,correct,2.200084333017003,right,116.23023575000116,
stable,fall,stim_set/easy-239.png,116.274223290995,118.32394233299419,fall,correct,2.0556990839831997,right,121.34021641602158,
stable,fall,stim_set/hard-vcom=4-23.png,121.38223908300279,124.11771250001038,fall,incorrect,2.7456481249828357,right,127.13866812500055,
stable,fall,stim_set/hard-vcom=3-145.png,127.17447837500367,130.13407374999952,stand,incorrect,2.9705127500055823,left,133.15543254101067,
unstable,stand,stim_set/easy-164.png,150.98269487501238,152.1073299999989,fall,correct,1.1292519999842625,right,155.12355704102083,
unstable,stand,stim_set/easy-vcom=1-12.png,155.17073629100923,156.72432137501892,fall,incorrect,1.558891541993944,right,159.74003275000723,
unstable,stand,stim_set/hard-vcom=1-92.png,159.78726020801696,163.71570650002104,fall,correct,3.934457499999553,right,166.7320608330192,
unstable,stand,stim_set/easy-542.png,166.7792142080143,167.6826385410095,fall,correct,0.9095568750053644,right,170.69909400001052,
unstable,stand,stim_set/hard-vcom=4-88.png,170.7420494580001,172.59892954101088,fall,incorrect,1.8625865420035552,right,175.6150931660086,
unstable,stand,stim_set/hard-600.png,175.6517867500079,178.6174247500021,fall,incorrect,2.9767001250002068,right,181.63886520802043,
unstable,stand,stim_set/hard-vcom=4-139.png,181.68220645800466,183.81766670799698,stand,correct,2.1459071669960395,left,186.83897933299886,
unstable,stand,stim_set/easy-586.png,186.88384983301512,188.44086237502052,fall,correct,1.5630681670154445,right,191.45703333301935,
unstable,stand,stim_set/hard-286.png,191.50506729100016,194.33260520800832,stand,correct,2.8327135410218034,left,197.3485452909954,
unstable,stand,stim_set/easy-318.png,197.3945148329949,198.6926103750011,fall,correct,1.308932875021128,right,201.7135588329984,
unstable,stand,stim_set/hard-280.png,201.76118654099992,203.0009420410206,fall,incorrect,1.25051379200886,right,206.0231732079992,
unstable,stand,stim_set/hard-440.png,206.06601141599822,206.84116912502213,fall,correct,0.7805152079963591,right,209.85700145800365,
unstable,stand,stim_set/easy-vcom=2-73.png,209.89816170799895,211.87434458301868,fall,correct,1.9825044170138426,right,214.89089170799707,
unstable,stand,stim_set/hard-vcom=4-27.png,214.93865258301958,216.54929354100022,fall,correct,1.6159347500069998,right,219.5649927080085,
unstable,stand,stim_set/hard-441.png,219.60566020800616,221.28261804100475,fall,correct,1.6825963750015944,right,224.29839820801863,
unstable,stand,stim_set/easy-28.png,224.34366058302112,225.26587858301355,fall,correct,0.9279936249949969,right,228.2819201250095,
unstable,stand,stim_set/hard-vcom=4-147.png,228.329497291008,229.84935433301143,stand,correct,1.525513583997963,left,232.86506612499943,
unstable,stand,stim_set/hard-14.png,232.90260237501934,235.1826160410128,fall,correct,2.2853397500002757,right,238.19861820799997,
unstable,stand,stim_set/hard-vcom=3-142.png,238.24640570802148,239.83409333301825,fall,incorrect,1.5989183750061784,right,242.85575179100852,
unstable,stand,stim_set/hard-vcom=2-95.png,242.89280395800597,246.16598449999583,stand,correct,3.278620957979001,left,249.182000041008,
unstable,stand,stim_set/easy-411.png,249.22916020802222,251.88258916599443,fall,correct,2.6597945420071483,right,254.8994392910099,
unstable,stand,stim_set/hard-78.png,254.94462179101538,257.63424750001286,stand,correct,2.7003251659916714,left,260.6552083750139,
unstable,stand,stim_set/easy-304.png,260.7000407500018,262.43426350000664,fall,incorrect,1.745358167012455,right,265.4553712909983,
unstable,stand,stim_set/hard-vcom=4-22.png,265.5029425829998,269.2922261659987,stand,correct,3.80060441698879,left,272.31396720799967,
unstable,stand,stim_set/hard-555.png,272.3571357500041,274.8826122080209,stand,correct,2.5307991669978946,left,277.8988262079947,
stable,NA,stim_set/easy-vcom=3-121.png,297.2915861250076,299.2658710410178,fall,correct,1.9797031670168508,right,302.2823885830003,
stable,NA,stim_set/easy-239.png,302.3265007910086,303.6493093330064,fall,correct,1.3281729999871459,right,306.6651965409983,
stable,NA,stim_set/hard-vcom=1-130.png,306.70667395801865,310.45766820802237,stand,correct,3.7564295410120394,left,313.4742976250127,
stable,NA,stim_set/hard-599.png,313.5107390829944,316.3492887910106,fall,incorrect,2.8440355420170818,right,319.36453516600886,
stable,NA,stim_set/easy-11.png,319.4064178330009,320.86597475002054,fall,correct,1.4650534169923048,right,323.8818388750078,
stable,NA,stim_set/hard-vcom=4-132.png,323.92214112501824,326.27432933301316,fall,incorrect,2.3574413339956664,right,329.29022158301086,
stable,NA,stim_set/easy-233.png,329.33686316601234,330.7406571250176,fall,correct,1.4096414170053322,right,333.7568739160197,
stable,NA,stim_set/easy-195.png,333.79901954100933,335.107628208003,fall,correct,1.3144407919899095,right,338.1241529160179,
stable,NA,stim_set/easy-228.png,338.16233708302025,339.11587229100405,fall,correct,0.9596701670088805,right,342.13192170800176,
stable,NA,stim_set/easy-8.png,342.17381762500736,342.94932387501467,fall,correct,0.7810080419876613,right,345.9650672910211,
stable,NA,stim_set/easy-vcom=3-106.png,346.01016362500377,348.9659593329998,stand,correct,2.961879750015214,left,351.98271658300655,
stable,NA,stim_set/hard-214.png,352.03018120801426,355.41587887500646,fall,incorrect,3.3917901660024654,right,358.4329115000146,
stable,NA,stim_set/easy-122.png,358.476822541008,359.32393766602036,fall,incorrect,0.8528255419805646,right,362.34004295800696,
stable,NA,stim_set/hard-vcom=2-100.png,362.38446562501485,366.3325290410139,stand,correct,3.953961666993564,left,369.3484737079998,
stable,NA,stim_set/hard-369.png,369.38578775001224,373.3410084579955,stand,incorrect,3.960839416977251,left,376.3568317909958,
stable,NA,stim_set/hard-576.png,376.3950273329974,378.05911608299357,fall,incorrect,1.675085416994989,right,381.0806670410093,
stable,NA,stim_set/hard-492.png,381.12582358301734,384.0593309160031,stand,correct,2.944822999997996,left,387.0809318750107,
stable,NA,stim_set/hard-vcom=3-143.png,387.12455083301757,390.7074094580021,stand,correct,3.588094792008633,left,393.72365670799627,
stable,NA,stim_set/hard-vcom=3-145.png,393.76160737499595,396.09908174999873,fall,correct,2.344163708999986,right,399.11599416600075,
stable,NA,stim_set/hard-vcom=4-23.png,399.15983650001,400.7076622910099,fall,incorrect,1.5538345000240952,right,403.72348124999553,
stable,NA,stim_set/hard-vcom=3-82.png,403.76933987499797,407.73406558300485,fall,incorrect,3.9760662500048056,right,410.7554052910127,
stable,NA,stim_set/hard-410.png,410.8031031250139,415.1077119160036,stand,incorrect,4.310114834021078,left,418.12335591600277,
stable,NA,stim_set/easy-344.png,418.1663048750197,419.1509278330195,fall,correct,0.994993667001836,right,422.17181587501545,
stable,NA,stim_set/easy-vcom=1-87.png,422.21907741599716,423.2762279580056,fall,incorrect,1.067973749974044,right,426.2974493330112,
stable,NA,stim_set/hard-vcom=1-95.png,426.3411089160072,427.8661782499985,fall,incorrect,1.530855832999805,right,430.8825264580082,
stable,stand,stim_set/hard-367.png,3.1890973749978,6.2268580829841085,fall,incorrect,3.047509458003333,right,9.247612249979284,
stable,stand,stim_set/easy-20.png,9.29143495799508,10.2268667909957,fall,correct,0.9465734590194188,right,13.24827587499749,
stable,stand,stim_set/easy-vcom=3-125.png,13.297409374994459,14.233319082995877,fall,incorrect,0.9417439580138307,right,17.24982841598103,
stable,stand,stim_set/easy-vcom=4-69.png,17.296939583000494,18.08371462498326,fall,correct,0.792576541978633,right,21.09975591598777,
stable,stand,stim_set/hard-vcom=4-130.png,21.143936332984595,22.901549874979537,fall,correct,1.768525999999838,right,25.92391020798823,
stable,stand,stim_set/easy-vcom=4-126.png,25.971677458001068,28.560032082983525,fall,correct,2.5997057080094237,right,31.581634500005748,
stable,stand,stim_set/hard-563.png,31.63049895799486,35.28345524999895,fall,incorrect,3.6588795419957023,right,38.29962741598138,
stable,stand,stim_set/easy-590.png,38.3475655829825,39.300178499979666,fall,correct,0.958543999993708,right,42.3165027500072,
stable,stand,stim_set/easy-vcom=1-83.png,42.35434108300251,43.458484915987356,fall,incorrect,1.1092447499977425,right,46.47429104099865,
stable,stand,stim_set/hard-vcom=2-45.png,46.5114873329876,47.366884916002164,fall,correct,0.8611927079909947,right,50.38316037500044,
stable,stand,stim_set/hard-vcom=4-45.png,50.42839162499877,51.96856762497919,fall,correct,1.5514250409905799,right,54.990189457981614,
stable,stand,stim_set/hard-451.png,55.03657666599611,57.241893166006776,fall,correct,2.2108246669813525,right,60.258047249983065,
stable,stand,stim_set/easy-538.png,60.29993966600159,61.17521904100431,fall,correct,0.8810885829734616,right,64.1917327499832,
stable,stand,stim_set/hard-474.png,64.23467470798641,65.20862420799676,fall,correct,0.9798561249917839,right,68.2243300830014,
stable,stand,stim_set/easy-63.png,68.26755520800361,72.05199787497986,fall,correct,3.795100958988769,right,75.0732975830033,
stable,stand,stim_set/hard-40.png,75.12017795798602,77.47518195799785,stand,correct,2.360657832992729,left,80.49106016597943,
stable,stand,stim_set/easy-31.png,80.53634141598013,84.5184495410067,fall,incorrect,3.9929176670266315,right,87.53924587499932,
stable,stand,stim_set/easy-vcom=2-3.png,87.58466591598699,90.15868475000025,fall,correct,2.5794045829970855,right,93.17462325000088,
stable,stand,stim_set/hard-vcom=2-16.png,93.22294391598552,96.12515137498849,stand,correct,2.907926249987213,left,99.14120245800586,
stable,stand,stim_set/hard-vcom=1-3.png,99.18570787500357,100.66820883299806,stand,correct,1.493639374995837,left,103.68930279099732,
stable,stand,stim_set/easy-vcom=1-73.png,103.7266812909802,107.03331425000215,stand,correct,3.3118804169935174,left,110.04922787498799,
stable,stand,stim_set/hard-570.png,110.09728924999945,113.63533520800411,fall,incorrect,3.5489764160010964,right,116.65639508300228,
stable,stand,stim_set/easy-280.png,116.70019808298093,118.45029074998456,fall,correct,1.7560925830039196,right,121.46649691599305,
stable,stand,stim_set/hard-vcom=4-67.png,121.51030287498725,122.41688345800503,fall,correct,0.9125426250102464,right,125.43315837500268,
stable,stand,stim_set/easy-vcom=3-142.png,125.479383665981,128.25835095799994,fall,incorrect,2.7842371669830754,right,131.2744610410009,
unstable,NA,stim_set/hard-vcom=1-5.png,149.54069987498224,151.59218174999114,fall,incorrect,2.0558226670254953,right,154.607576874987,
unstable,NA,stim_set/easy-77.png,154.65119933299138,155.52537983297952,fall,correct,0.8801134169916622,right,158.54129462499986,
unstable,NA,stim_set/hard-590.png,158.5878828749992,161.09195825000643,stand,incorrect,2.509884917002637,left,164.10836045799078,
unstable,NA,stim_set/hard-382.png,164.1462634159834,166.21851454098942,fall,incorrect,2.083651082997676,right,169.2396305410075,
unstable,NA,stim_set/hard-439.png,169.28390458298963,171.19340449999436,fall,correct,1.9206585840147454,right,174.21487008300028,
unstable,NA,stim_set/hard-388.png,174.25212487499812,176.3501978330023,fall,incorrect,2.104023749998305,right,179.3663947499881,
unstable,NA,stim_set/hard-vcom=3-100.png,179.41023508299259,181.69371091600624,stand,incorrect,2.294496167014586,left,184.71506645798218,
unstable,NA,stim_set/hard-vcom=2-20.png,184.76198208300048,186.9021014579921,stand,correct,2.151222875021631,left,189.92369483300718,
unstable,NA,stim_set/hard-21.png,189.96720316598658,192.6252222500043,fall,incorrect,2.663760541996453,right,195.6417602080037,
unstable,NA,stim_set/hard-442.png,195.69001166598173,196.96012570799212,fall,incorrect,1.2812962089956272,right,199.98193016598816,
unstable,NA,stim_set/hard-552.png,200.02847770799417,202.9765293749806,fall,incorrect,2.958955625013914,right,205.9978505409963,
unstable,NA,stim_set/easy-vcom=4-4.png,206.04166229098337,208.49195604099077,fall,correct,2.4555149580119178,right,211.50758762500482,
unstable,NA,stim_set/easy-vcom=3-136.png,211.5486770409916,213.72530383299454,fall,incorrect,2.182055915996898,right,216.74130854097893,
unstable,NA,stim_set/easy-121.png,216.78992366598686,217.9515167500067,fall,incorrect,1.1726691250223666,right,220.97276924998732,
unstable,NA,stim_set/hard-371.png,221.0094906250015,222.25842912498047,fall,incorrect,1.2550497080083005,right,225.27514462498948,
unstable,NA,stim_set/hard-345.png,225.31852166599128,226.202032125002,fall,correct,0.8939753340091556,right,229.22255541599588,
unstable,NA,stim_set/hard-271.png,229.2695235410065,230.8519069159811,fall,incorrect,1.5931218749901745,right,233.87310383300064,
unstable,NA,stim_set/hard-556.png,233.91574900000705,235.2268542079837,fall,incorrect,1.322155833011493,right,238.24782045799657,
unstable,NA,stim_set/easy-13.png,238.29570733298897,240.00018674999592,fall,correct,1.7102706659934483,right,243.01620849999017,
unstable,NA,stim_set/easy-vcom=4-19.png,243.06424012497882,244.26699033298064,fall,correct,1.2076409999863245,right,247.2826000409841,
unstable,NA,stim_set/easy-vcom=1-145.png,247.32815200000186,250.71005279099336,stand,correct,3.39288004199625,left,253.7310726660071,
unstable,NA,stim_set/hard-vcom=2-144.png,253.76884191599675,256.2852907079796,fall,correct,2.526790500007337,right,259.3065190409834,
unstable,NA,stim_set/hard-2.png,259.35251037499984,263.40021249998244,stand,correct,4.053378790995339,left,266.4164565409883,
unstable,NA,stim_set/hard-432.png,266.4641385829891,267.9419252910011,fall,correct,1.483346791996155,right,270.95765733299777,
unstable,NA,stim_set/hard-82.png,271.0043077080045,272.6085322079889,fall,incorrect,1.609889875020599,right,275.6250897909922,
unstable,fall,stim_set/hard-388.png,283.4071796659846,286.2502142909798,fall,incorrect,2.847671374998754,right,289.2659837079991,
unstable,fall,stim_set/easy-77.png,289.30894720798824,290.3437664579833,fall,correct,1.0455917920044158,right,293.3646389579808,
unstable,fall,stim_set/hard-439.png,293.4079404579825,294.26841341599356,fall,correct,0.8712254999845754,right,297.28987329098163,
unstable,fall,stim_set/hard-21.png,297.33151216598344,299.4336460409977,fall,incorrect,2.1078522080206312,right,302.4497582909826,
unstable,fall,stim_set/hard-vcom=2-20.png,302.49536041598185,304.2851858329959,stand,correct,1.8004282919864636,left,307.3059859999921,
unstable,fall,stim_set/easy-vcom=1-145.png,307.35000541599584,310.42521495799883,stand,correct,3.0806891660031397,left,313.4410776250006,
unstable,fall,stim_set/hard-345.png,313.48278937500436,314.44189512499725,fall,correct,0.9645706669834908,right,317.4576402909879,
unstable,fall,stim_set/easy-vcom=4-19.png,317.5033618329908,318.3167905829905,fall,correct,0.819396750011947,right,321.3333106659993,
unstable,fall,stim_set/easy-vcom=3-136.png,321.3730973750062,322.24310374999186,fall,incorrect,0.8810425840201788,right,325.26462658299715,
unstable,fall,stim_set/hard-82.png,325.30920916600735,327.2583078329917,fall,incorrect,1.9542340420011897,right,330.27434870798606,
unstable,fall,stim_set/hard-371.png,330.31107274998794,331.6084872499923,fall,incorrect,1.3031764999905135,right,334.62493362498935,
unstable,fall,stim_set/hard-590.png,334.670276290999,337.60016499998164,stand,incorrect,2.935688042023685,left,340.61630224998225,
unstable,fall,stim_set/hard-432.png,340.6621608749847,343.54204262499115,fall,correct,2.885411458002636,right,346.55806329098414,
unstable,fall,stim_set/easy-13.png,346.6043940410018,348.78364387498004,fall,correct,2.184545708994847,right,351.7993174580042,
unstable,fall,stim_set/hard-556.png,351.8399158749962,354.016708790994,fall,incorrect,2.183276791998651,right,357.0337603329972,
unstable,fall,stim_set/hard-271.png,357.0792099579994,358.4084663329995,fall,incorrect,1.3348479580017738,right,361.4244223329879,
unstable,fall,stim_set/hard-vcom=2-144.png,361.4608112910064,364.09406791598303,fall,correct,2.6436627919902094,right,367.1153417909809,
unstable,fall,stim_set/easy-121.png,367.1617289999849,368.49191658300697,fall,incorrect,1.3359790410031565,right,371.5076618329913,
unstable,fall,stim_set/hard-vcom=1-5.png,371.5496739159862,374.4254679160076,stand,correct,2.8819204999890644,left,377.44188045800547,
unstable,fall,stim_set/hard-382.png,377.4789586660045,380.8001721659966,stand,correct,3.3273921250074636,left,383.8161126250052,
unstable,fall,stim_set/hard-552.png,383.86046100000385,385.7683348749997,fall,incorrect,1.9192939580243547,right,388.78941620799014,
unstable,fall,stim_set/hard-2.png,388.83399520799867,391.8939099999843,stand,correct,3.070159875001991,left,394.91440129099647,
unstable,fall,stim_set/hard-442.png,394.9607771659794,396.47689908300526,fall,incorrect,1.5264872919942718,right,399.4983729579835,
unstable,fall,stim_set/hard-vcom=3-100.png,399.53999791599927,401.31695129099535,fall,correct,1.7829208330076654,right,404.3331982079835,
unstable,fall,stim_set/easy-vcom=4-4.png,404.3756152080023,406.5752229159989,fall,correct,2.2053405419865157,right,409.5910443330067,
