batch_type,motivation,towers,trial_start,stim_on,choice,acc,rt,key,trial_end,score
stable,fall,stim_set/easy-344.png,6.654184124985477,9.358105958992383,fall,correct,2.7074440420255996,right,12.37774216698017,215.0
stable,fall,stim_set/hard-599.png,12.416209958988475,14.141433999990113,stand,correct,1.7312635839916766,left,17.157959208998363,
stable,fall,stim_set/hard-492.png,17.203346124995733,21.084484999999404,stand,correct,3.8923814579902682,left,24.10606670897687,
stable,fall,stim_set/easy-233.png,24.15386399999261,25.583092249988113,fall,correct,1.4354198749933857,right,28.59964833399863,
stable,fall,stim_set/easy-11.png,28.643240833975142,30.87632324997685,fall,correct,2.243810666986974,right,33.89726033399347,
stable,fall,stim_set/easy-vcom=3-106.png,33.94103308397462,35.374682666995795,stand,correct,1.4398867920099292,left,38.39093304198468,
stable,fall,stim_set/easy-vcom=1-87.png,38.43793479198939,40.9512811669847,stand,correct,2.5246530829754192,left,43.973818666971056,
stable,fall,stim_set/easy-vcom=3-121.png,44.02023395898868,49.02483262497117,NA,,,NA,55.797131583996816,
stable,fall,stim_set/hard-vcom=3-143.png,55.84109858397278,57.9164417499851,stand,correct,2.08182841699454,left,60.932997500000056,
stable,fall,stim_set/easy-8.png,60.974421666993294,62.38473845898989,fall,correct,1.4211217080010101,right,65.40576262498507,
stable,fall,stim_set/easy-228.png,65.44453829198028,66.86662612497457,fall,correct,1.4275564160197973,right,69.8822230839869,
stable,fall,stim_set/hard-214.png,69.92953674998716,72.24234549998073,stand,correct,2.3247855420049746,left,75.26436720899073,
stable,fall,stim_set/hard-vcom=4-23.png,75.30792304198258,77.89346079199458,stand,correct,2.5964058339886833,left,80.91464166698279,
stable,fall,stim_set/hard-vcom=3-145.png,80.95265041699167,82.82492699997965,stand,incorrect,1.8777407500019763,left,85.84103420897736,
stable,fall,stim_set/hard-vcom=3-82.png,85.8868486249994,87.62656737497309,stand,correct,1.7506367920141201,left,90.64842629199848,
stable,fall,stim_set/hard-576.png,90.68627016697428,93.66670995898312,fall,incorrect,2.9860668329929467,right,96.68278691699379,
stable,fall,stim_set/hard-vcom=2-100.png,96.72676737498841,98.899949499988,stand,correct,2.179065999982413,left,101.91604129198822,
stable,fall,stim_set/hard-vcom=4-132.png,101.95800591699663,103.15791379197617,fall,incorrect,1.2055458340037148,right,106.17398612498073,
stable,fall,stim_set/hard-369.png,106.21191833398188,107.67483304199413,stand,incorrect,1.468877875013277,left,110.69118416699348,
stable,fall,stim_set/hard-vcom=1-95.png,110.73473479197128,113.04156816698378,stand,correct,2.3119673329929356,left,116.05720929199015,
stable,fall,stim_set/easy-239.png,116.103479124984,118.80830433397205,stand,incorrect,2.71030345899635,left,121.8238612919813,
stable,fall,stim_set/hard-410.png,121.87126183399232,124.85974216699833,stand,incorrect,2.999117750005098,left,127.88099362497451,
stable,fall,stim_set/easy-195.png,127.92422070898465,129.1329754589824,fall,correct,1.2151167080155574,right,132.1497080839763,
stable,fall,stim_set/hard-vcom=1-130.png,132.19267216697335,133.71663562499452,stand,correct,1.5294675000186544,left,136.7330182499718,
stable,fall,stim_set/easy-122.png,136.77673008397687,138.0999160419742,fall,incorrect,1.3289147499890532,right,141.1162172499753,
stable,fall,stim_set/easy-vcom=2-3.png,200.61455224998645,204.65182479197392,fall,correct,4.0468050409981515,right,207.67289054198773,
stable,fall,stim_set/hard-367.png,207.71704433398554,209.5162811249902,stand,correct,1.8057394579809625,left,212.53280441698735,
stable,fall,stim_set/hard-570.png,212.58068187499885,213.96796608399018,stand,correct,1.3986867080093361,left,216.98908599998686,
stable,fall,stim_set/easy-vcom=4-69.png,217.036396874988,218.38319879199844,fall,correct,1.3524742499866989,right,221.39936891698744,
stable,fall,stim_set/easy-63.png,221.44256091699935,224.1414296249859,fall,correct,2.7050869170052465,right,227.15758191698114,
stable,fall,stim_set/easy-vcom=1-73.png,227.19517087499844,229.4601025839802,stand,correct,2.27516041600029,left,232.4814460419875,
stable,fall,stim_set/easy-538.png,232.52339287498035,234.61000095898635,fall,correct,2.0970492079795804,right,237.63105483399704,
stable,fall,stim_set/hard-451.png,237.67796224998892,239.82487449998735,fall,correct,2.152212374989176,right,242.84108066698536,
stable,fall,stim_set/hard-40.png,242.8878128749784,244.39161349998903,stand,correct,1.5096409159887116,left,247.40790199997718,
stable,fall,stim_set/easy-20.png,247.45143170899246,249.95835841697408,fall,correct,2.5125392499903683,right,252.9748697919713,
stable,fall,stim_set/hard-vcom=4-45.png,253.02073262498016,256.6851714589866,fall,correct,3.6752842499990948,right,259.70642674999544,
stable,fall,stim_set/hard-vcom=4-67.png,259.7504426249943,263.02486833397415,stand,incorrect,3.2799279169994406,left,266.04048754199175,
stable,fall,stim_set/easy-31.png,266.0861172499717,267.6433920839918,fall,incorrect,1.5680946249922272,right,270.6643911669962,
stable,fall,stim_set/easy-vcom=3-142.png,270.71068608399946,272.25814441699185,stand,correct,1.5530550419935025,left,275.2742449999787,
stable,fall,stim_set/hard-vcom=1-3.png,275.3186260419898,276.64167945898953,stand,correct,1.3286422500095796,left,279.657902499981,
stable,fall,stim_set/easy-vcom=1-83.png,279.695147624996,280.8996663749858,stand,correct,1.2110528750054073,left,283.9161304589943,
stable,fall,stim_set/easy-vcom=4-126.png,283.9639205839776,288.97621620897553,NA,,,NA,294.2045591669739,
stable,fall,stim_set/hard-vcom=4-130.png,294.2487844999996,296.3998899589933,fall,correct,2.1573429580021184,right,299.4164805839828,
stable,fall,stim_set/easy-280.png,299.459580499999,300.7831520839827,fall,correct,1.3297466250078287,right,303.7991792089888,
stable,fall,stim_set/easy-590.png,303.847173208982,305.05815229198197,fall,correct,1.2171678330050781,right,308.07404429197777,
stable,fall,stim_set/hard-563.png,308.12220874999184,309.733162916993,stand,correct,1.616984374995809,left,312.7495659169799,
stable,fall,stim_set/hard-vcom=2-16.png,312.79783208397566,314.2082919589884,stand,correct,1.4162483330001123,left,317.2239498749841,
stable,fall,stim_set/hard-vcom=2-45.png,317.26114354198216,322.2678901249892,NA,,,NA,326.2755889999971,
stable,fall,stim_set/hard-474.png,326.3187751249934,327.4166303749953,fall,correct,1.1040642499865498,right,330.4334180839942,
stable,fall,stim_set/easy-vcom=3-125.png,330.48136583398446,332.34159883399843,fall,incorrect,1.8657096249808092,right,335.3572164589714,
stable,stand,stim_set/easy-280.png,381.05348029197194,382.72488179197535,fall,correct,1.6740088330116123,right,385.74142991699046,
stable,stand,stim_set/easy-vcom=4-69.png,385.7868501249759,387.3763559999934,fall,correct,1.6004352089948952,right,390.3973707499972,
stable,stand,stim_set/hard-570.png,390.44363920899923,391.8766522089718,stand,correct,1.4433479580038693,left,394.8978137089871,
stable,stand,stim_set/hard-vcom=4-67.png,394.94042112497846,398.4768756669946,fall,correct,3.546724457992241,right,401.4975058749842,
stable,stand,stim_set/hard-40.png,401.5422753749881,403.0098922919715,stand,correct,1.4780684580036905,left,406.0311587919714,
stable,stand,stim_set/easy-vcom=4-126.png,406.07769824998104,407.8249768339738,stand,incorrect,1.7527462080179248,left,410.84186374998535,
stable,stand,stim_set/hard-451.png,410.8865334169823,413.1015917089826,fall,correct,2.226154417003272,right,416.1226920419722,
stable,stand,stim_set/easy-vcom=1-73.png,416.15869587499765,417.46839224998257,stand,correct,1.3207241670170333,left,420.4897141669935,
stable,stand,stim_set/hard-vcom=2-45.png,420.5258128339774,422.6248379589815,stand,incorrect,2.1045927079976536,left,425.6406989589741,
stable,stand,stim_set/easy-vcom=3-142.png,425.68529329198645,427.4666064999765,fall,incorrect,1.7868938330211677,right,430.482860041986,
stable,stand,stim_set/easy-vcom=1-83.png,430.5190042919712,432.21655224999995,stand,correct,1.703270917001646,left,435.23254287499003,
stable,stand,stim_set/easy-538.png,435.2728982089902,437.17484324998804,fall,correct,1.9077246249944437,right,440.19055383399245,
stable,stand,stim_set/easy-31.png,440.2348284169857,441.28310599998804,fall,incorrect,1.0542307500145398,right,444.2994779589935,
stable,stand,stim_set/hard-vcom=4-45.png,444.34373387499363,446.21659649998765,fall,correct,1.8786753340100404,right,449.23258733397233,
stable,stand,stim_set/easy-vcom=3-125.png,449.2791478749714,451.31639766698936,fall,incorrect,2.0439192919875495,right,454.3331690839841,
stable,stand,stim_set/easy-20.png,454.37537962498027,455.8434136249998,fall,correct,1.478556791000301,right,458.8640505419753,
stable,stand,stim_set/hard-vcom=1-3.png,458.907043958985,460.183188874973,stand,correct,1.2818914589879569,left,463.19941791699966,
stable,stand,stim_set/hard-474.png,463.24138062499696,464.25135812498047,fall,correct,1.0209169579902664,right,467.2724747499742,
stable,stand,stim_set/hard-563.png,467.31942062499,468.8601709169743,stand,correct,1.5512690829928033,left,471.88108849999844,
stable,stand,stim_set/hard-vcom=4-130.png,471.92367558399565,474.29990491698845,stand,incorrect,2.3821795000112616,left,477.3164009999891,
stable,stand,stim_set/easy-63.png,477.3579171669844,478.4686048749718,fall,correct,1.1215894169872627,right,481.4895969169738,
stable,stand,stim_set/hard-367.png,481.5317885839904,484.1181369999831,fall,incorrect,2.5969238330144435,right,487.1392092499882,
stable,stand,stim_set/easy-vcom=2-3.png,487.1830515419715,490.416404958989,stand,incorrect,3.2401931250060443,left,493.4354440839961,
stable,stand,stim_set/hard-vcom=2-16.png,493.4823507919791,495.28308324998943,stand,correct,1.807007583003724,left,498.29971654198016,
stable,stand,stim_set/easy-590.png,498.34633370899246,499.3499055839784,fall,correct,1.0095691249880474,right,502.36648983397754,
stable,NA,stim_set/hard-vcom=4-132.png,6.276406374992803,7.806047334015602,fall,incorrect,1.5344690830097534,right,10.822159292001743,
stable,NA,stim_set/hard-vcom=3-143.png,10.863759416999528,13.3977721669944,stand,correct,2.5401319160009734,left,16.4143645419972,
stable,NA,stim_set/hard-vcom=3-145.png,16.450554125010967,17.723026624997146,stand,incorrect,1.2779684579872992,left,20.738784499990288,
stable,NA,stim_set/easy-344.png,20.7798634589999,21.731269209005404,fall,correct,0.9574014999961946,right,24.74757100001443,
stable,NA,stim_set/hard-vcom=1-95.png,24.789500167011283,26.64978754200274,stand,correct,1.8711932919977698,left,29.670978667010786,
stable,NA,stim_set/easy-239.png,29.714954833994852,30.699475083994912,fall,correct,0.995244542020373,right,33.72081004199572,
stable,NA,stim_set/easy-195.png,33.762965458998224,34.94798870899831,fall,correct,1.1907350000110455,right,37.96425308400649,
stable,NA,stim_set/hard-576.png,38.00043745900621,39.80627324999659,fall,incorrect,1.8113440409942996,right,42.822071000002325,
stable,NA,stim_set/hard-599.png,42.858054542011814,44.98110837501008,stand,correct,2.129161249991739,left,47.99769329201081,
stable,NA,stim_set/hard-492.png,48.04135545899044,49.47465612500673,stand,correct,1.4439700420189183,left,52.495990541996434,
stable,NA,stim_set/easy-vcom=1-87.png,52.54161829201621,54.50807333400007,fall,incorrect,1.9769034589990042,right,57.52878304201295,
stable,NA,stim_set/easy-11.png,57.571217459015315,58.59784162501455,fall,correct,1.032300375023624,right,61.61379487501108,
stable,NA,stim_set/easy-233.png,61.660202625003876,62.66452258400386,fall,correct,1.0099680830026045,right,65.68087450001622,
stable,NA,stim_set/hard-214.png,65.72735687499517,67.22281112501514,stand,correct,1.5011001250240952,left,70.23881391700706,
stable,NA,stim_set/easy-228.png,70.27519079201738,71.22285316701164,fall,correct,0.9532746670010965,right,74.23965283401776,
stable,NA,stim_set/hard-vcom=1-130.png,74.2813650839962,76.47441908399924,stand,correct,2.2041026250226423,left,79.49589449999621,
stable,NA,stim_set/hard-410.png,79.54171795901493,81.46432091700262,fall,correct,1.9285370419966057,right,84.4807245839911,
stable,NA,stim_set/hard-369.png,84.51692237501265,85.91461420900305,stand,incorrect,1.4023699579993263,left,88.9292613340076,
stable,NA,stim_set/easy-8.png,88.9694425839989,89.87274270900525,fall,correct,0.9089514999941457,right,92.88853104200098,
stable,NA,stim_set/easy-vcom=3-106.png,92.93050983399735,94.1810140000016,stand,correct,1.2566984590084758,left,97.19783920899499,
stable,NA,stim_set/easy-122.png,97.24024608399486,99.72482541701174,fall,incorrect,2.4951390839996748,right,102.74528441700386,
stable,NA,stim_set/hard-vcom=2-100.png,102.78794608399039,103.93935500000953,stand,correct,1.1569029999955092,left,106.95502679201309,
stable,NA,stim_set/hard-vcom=4-23.png,106.99747120900429,108.38257220899686,stand,correct,1.3964521670131944,left,111.40389641700312,
stable,NA,stim_set/easy-vcom=3-121.png,111.44854499999201,113.5227354170056,stand,incorrect,2.080109833012102,left,116.53850687501836,
stable,NA,stim_set/hard-vcom=3-82.png,116.58309104200453,117.89107199999853,stand,correct,1.3188458329823334,left,120.91231474999222,
unstable,stand,stim_set/easy-vcom=3-136.png,129.84116437501507,131.04921783399186,fall,incorrect,1.217853375012055,right,134.0709973339981,
unstable,stand,stim_set/hard-vcom=3-100.png,134.11460608401103,135.2826582500129,stand,incorrect,1.1786082499893382,left,138.30294416699326,
unstable,stand,stim_set/easy-121.png,138.35128558400902,139.91626883400022,fall,incorrect,1.57521529099904,right,142.9372460420127,
unstable,stand,stim_set/hard-82.png,142.98555091701564,144.49937875001342,stand,correct,1.5245052080135792,left,147.5213517920056,
unstable,stand,stim_set/easy-13.png,147.5693571669981,149.3827645840065,stand,incorrect,1.823745041998336,left,152.4038820840069,
unstable,stand,stim_set/hard-vcom=2-20.png,152.4508202500001,153.63101237500086,stand,correct,1.1862569169898052,left,156.64730158401653,
unstable,stand,stim_set/hard-382.png,156.68478487501852,157.9493544170109,stand,correct,1.2754246249969583,left,160.97116979199927,
unstable,stand,stim_set/hard-345.png,161.01460937500815,162.9494194590079,fall,correct,1.945291958982125,right,165.9706288340094,
unstable,stand,stim_set/hard-2.png,166.01657962499303,167.89928095901269,stand,correct,1.893369708006503,left,170.92037870900822,
unstable,stand,stim_set/hard-556.png,170.96317341699614,172.44758500001626,stand,correct,1.4903357500152197,left,175.46438966700225,
unstable,stand,stim_set/hard-552.png,175.51033675001236,176.69920316699427,stand,correct,1.1997574169945437,left,179.72053416699055,
unstable,stand,stim_set/hard-371.png,179.75768120901193,181.4556519589969,stand,correct,1.704573499999242,left,184.47293108399026,
unstable,stand,stim_set/hard-442.png,184.5211433340155,185.7725220840075,stand,correct,1.2571742500003893,left,188.78970445899176,
unstable,stand,stim_set/hard-439.png,188.8336119170126,190.21571833401686,fall,correct,1.3933897909882944,right,193.23726229200838,
unstable,stand,stim_set/hard-271.png,193.28474929201184,194.59898820900708,stand,correct,1.3253930420032702,left,197.62077362500713,
unstable,stand,stim_set/easy-vcom=1-145.png,197.6669082500157,198.8138920420024,stand,correct,1.1534616250137333,left,201.83092574999318,
unstable,stand,stim_set/easy-vcom=4-19.png,201.87881933400058,204.00585562500055,fall,correct,2.132650042010937,right,207.0217704999959,
unstable,stand,stim_set/hard-vcom=1-5.png,207.06511612501345,208.2322878749983,stand,correct,1.1785580829891842,left,211.25380329199834,
unstable,stand,stim_set/easy-vcom=4-4.png,211.29761362500722,212.39751933401567,fall,correct,1.1056891669868492,right,215.41342054199777,
unstable,stand,stim_set/hard-388.png,215.45109729201067,216.48080312501406,stand,correct,1.0359624580014497,left,219.49763170900405,
unstable,stand,stim_set/hard-590.png,219.54421262501273,222.07255416701082,stand,incorrect,2.5345620419830084,left,225.08943391698995,
unstable,stand,stim_set/hard-21.png,225.13265520901768,226.2643272090063,stand,correct,1.1376540409983136,left,229.28061387501657,
unstable,stand,stim_set/hard-vcom=2-144.png,229.31848808401264,230.38242862501647,stand,incorrect,1.0747228749969508,left,233.40363983399584,
unstable,stand,stim_set/easy-77.png,233.44753037500777,234.67251233401475,fall,correct,1.2307925840141252,right,237.6890049999929,
unstable,stand,stim_set/hard-432.png,237.73861791699892,240.349487917003,fall,correct,2.621399833005853,right,243.37096929200925,
unstable,fall,stim_set/hard-388.png,250.56498720901436,251.74945833400125,stand,correct,1.1940184170089196,left,254.77025087500806,
unstable,fall,stim_set/easy-vcom=4-19.png,254.81713825001498,255.924496541993,fall,correct,1.1178096250223462,right,258.94555079200654,
unstable,fall,stim_set/hard-442.png,258.9929892499931,260.5726489590015,fall,incorrect,1.585316624987172,right,263.5885014590167,
unstable,fall,stim_set/hard-vcom=3-100.png,263.63214900001185,265.0557902090077,stand,incorrect,1.4292040420114063,left,268.07199529200443,
unstable,fall,stim_set/easy-vcom=1-145.png,268.11700362499687,269.5390448750113,stand,correct,1.427758875011932,left,272.55550304200733,
unstable,fall,stim_set/easy-vcom=3-136.png,272.59641708401614,273.78064016700955,fall,incorrect,1.190237333998084,right,276.7968099169957,
unstable,fall,stim_set/hard-382.png,276.83336583399796,277.80583612501505,stand,correct,0.977992208005162,left,280.82135683399974,
unstable,fall,stim_set/hard-vcom=2-20.png,280.8681579999975,281.9826187090075,stand,correct,1.125353042007191,left,285.0036893340002,
unstable,fall,stim_set/hard-556.png,285.0459518340067,286.6475157919922,stand,correct,1.6067918750050012,left,289.66338229199755,
unstable,fall,stim_set/hard-432.png,289.70940162500483,291.69950954199885,fall,correct,2.000545457995031,right,294.720283208997,
unstable,fall,stim_set/hard-439.png,294.76373316699755,295.89907337501063,fall,correct,1.146274041995639,right,298.92015925000305,
unstable,fall,stim_set/hard-vcom=1-5.png,298.96269645899883,300.51408187500783,stand,correct,1.556915207998827,left,303.5301203340059,
unstable,fall,stim_set/easy-13.png,303.5774005840067,306.166022334015,stand,incorrect,2.599268457997823,left,309.1869702920085,
unstable,fall,stim_set/hard-371.png,309.22385687500355,311.4222138749901,fall,incorrect,2.2046236250025686,right,314.438868792,
unstable,fall,stim_set/hard-2.png,314.4849135419936,315.614296292013,stand,correct,1.135293500003172,left,318.63069670900586,
unstable,fall,stim_set/hard-552.png,318.67587195901433,319.7659802499984,stand,correct,1.1005907910002861,left,322.7870066250034,
unstable,fall,stim_set/hard-590.png,322.8321228749992,324.0908960000088,fall,correct,1.2695760000206064,right,327.1124800420075,
unstable,fall,stim_set/hard-271.png,327.1582896670152,329.1558479590167,fall,incorrect,2.0031245420104824,right,332.17221433401573,
unstable,fall,stim_set/hard-vcom=2-144.png,332.2083325840067,333.72440462501254,stand,incorrect,1.5263915410032496,left,336.7456567090121,
unstable,fall,stim_set/hard-345.png,336.7886759999965,337.9725092090084,fall,correct,1.1890976249997038,right,340.98857524999767,
unstable,fall,stim_set/easy-121.png,341.03537370898994,342.4640932090115,fall,incorrect,1.435154250008054,right,345.4807085840148,
unstable,fall,stim_set/easy-77.png,345.52298679199885,346.79049429201405,fall,correct,1.2784750419959892,right,349.8121715419984,
unstable,fall,stim_set/hard-82.png,349.8576845420175,351.83055879201856,stand,correct,1.9784779579786118,left,354.8469096249901,
unstable,fall,stim_set/hard-21.png,354.8893440840184,356.239051542012,stand,correct,1.3555477499903645,left,359.25518962499336,
unstable,fall,stim_set/easy-vcom=4-4.png,359.29825262501254,360.37250716699054,fall,correct,1.0799202079942916,right,363.3885983749933,
stable,NA,stim_set/hard-vcom=2-100.png,1.72558220801875,2.952281458012294,stand,correct,1.2314283750019968,left,5.968884750007419,
stable,NA,stim_set/easy-122.png,6.012801291013602,8.010885208001127,fall,incorrect,2.003793834010139,right,11.02701958300895,
stable,NA,stim_set/hard-214.png,11.074600666004699,12.127446124999551,stand,correct,1.0589222499984317,left,15.143761291023111,
stable,NA,stim_set/easy-8.png,15.1860842910246,16.535985583002912,fall,correct,1.3558050830033608,right,19.5521394580137,
stable,NA,stim_set/easy-vcom=1-87.png,19.599120958009735,20.752383416023804,stand,correct,1.1586744170053862,left,23.768145375011954,
stable,NA,stim_set/hard-vcom=4-23.png,23.811943916021846,24.895680000016,stand,correct,1.0952782089880202,left,27.91733291602577,
stable,NA,stim_set/easy-11.png,27.960804500005906,29.02099137500045,fall,correct,1.0708529169787653,right,32.04196150001371,
stable,NA,stim_set/hard-vcom=1-95.png,32.08528104101424,33.035885125020286,stand,correct,0.9564303749939427,left,36.05241687502712,
stable,NA,stim_set/easy-344.png,36.09536108301836,37.54393112502294,fall,correct,1.4551814580045175,right,40.56055150000611,
stable,NA,stim_set/hard-vcom=3-82.png,40.606442708027316,41.71090162501787,stand,correct,1.1109480000159238,left,44.729731041006744,
stable,NA,stim_set/easy-239.png,44.77650383301079,46.285865416022716,stand,incorrect,1.5148972920142114,left,49.30252466601087,
stable,NA,stim_set/hard-492.png,49.34827183300513,51.97744345801766,fall,incorrect,2.6352020830090623,right,54.99413666600594,
stable,NA,stim_set/easy-vcom=3-121.png,55.04023587499978,56.9941795830091,stand,incorrect,1.959798124997178,left,60.01012229101616,
stable,NA,stim_set/hard-576.png,60.047917083022185,62.062864250008715,fall,incorrect,2.0259681250026915,right,65.08461708301911,
stable,NA,stim_set/easy-228.png,65.12236029101769,66.30243187502492,fall,correct,1.1858402500220109,right,69.31849554102519,
stable,NA,stim_set/hard-410.png,69.3658649160061,70.6441910410067,stand,incorrect,1.28397920797579,left,73.66030908300309,
stable,NA,stim_set/hard-vcom=3-145.png,73.69783912500134,75.50261745802709,fall,correct,1.8102775419829413,right,78.51879300002474,
stable,NA,stim_set/hard-vcom=3-143.png,78.5621943330043,80.88586337500601,stand,correct,2.3293551249953452,left,83.90163341601146,
stable,NA,stim_set/hard-599.png,83.93937362500583,86.0128975410189,fall,incorrect,2.0837859160092194,right,89.03357791600865,
stable,NA,stim_set/easy-233.png,89.08147054101573,90.47059733301285,fall,correct,1.4001429170020856,right,93.49154987500515,
stable,NA,stim_set/easy-195.png,93.53507945800084,94.7191950410197,fall,correct,1.1894050420087297,right,97.73474095802521,
stable,NA,stim_set/hard-vcom=4-132.png,97.77633979101665,98.88715804100502,fall,incorrect,1.1218901670072228,right,101.90844070800813,
stable,NA,stim_set/hard-vcom=1-130.png,101.95145491600852,103.27745091600809,stand,correct,1.3321689589938615,left,106.29370775001007,
stable,NA,stim_set/easy-vcom=3-106.png,106.33767666600761,107.62119466601871,stand,correct,1.2942003329808358,left,110.6422402500175,
stable,NA,stim_set/hard-369.png,110.67975112501881,111.87747000000672,stand,incorrect,1.2039037909999024,left,114.8936144580075,
stable,stand,stim_set/easy-20.png,122.4204169580189,123.9191208750126,fall,correct,1.503274208982475,right,126.93560875000549,
stable,stand,stim_set/easy-vcom=3-142.png,126.98158312501619,128.84615212501376,stand,correct,1.8758341250068042,left,131.86731212501763,
stable,stand,stim_set/hard-vcom=2-45.png,131.90467279101722,133.26089620802668,fall,correct,1.3623780419875402,right,136.27723237502505,
stable,stand,stim_set/hard-474.png,136.32073879102245,137.29420970802312,fall,correct,0.9790504589909688,right,140.3100479580171,
stable,stand,stim_set/hard-40.png,140.3561585410207,141.53583975002402,stand,correct,1.1853227919782512,left,144.55200133300968,
stable,stand,stim_set/easy-vcom=3-125.png,144.60021333300392,146.2109273330134,fall,incorrect,1.6159132499888074,right,149.22697858299944,
stable,stand,stim_set/easy-vcom=4-69.png,149.27384833301767,150.63562779102358,fall,correct,1.3676073329988867,right,153.6518653750245,
stable,stand,stim_set/hard-451.png,153.69781695801066,154.77742491601384,fall,correct,1.085500791989034,right,157.79330762501922,
stable,stand,stim_set/easy-vcom=4-126.png,157.8413552910206,159.60442504100502,stand,incorrect,1.774108499987051,left,162.62597770802677,
stable,stand,stim_set/hard-570.png,162.67335458300659,163.9273943330045,stand,correct,1.2601326669973787,left,166.94410562500707,
stable,stand,stim_set/easy-280.png,166.9876967080054,168.29397979102214,fall,correct,1.312084417004371,right,171.30990562500665,
stable,stand,stim_set/hard-vcom=4-45.png,171.35529858301743,172.71209508299944,fall,correct,1.3682991250243504,right,175.7336235830153,
stable,stand,stim_set/easy-vcom=1-73.png,175.77088766600355,177.46093137501157,stand,correct,1.6957589579978958,left,180.47658520800178,
stable,stand,stim_set/easy-31.png,180.5217847500171,181.7040629160183,fall,incorrect,1.1932988750049844,right,184.72539620799944,
stable,stand,stim_set/hard-367.png,184.76928100001533,187.1375751660089,fall,incorrect,2.378940791997593,right,190.15850962500554,
stable,stand,stim_set/hard-vcom=2-16.png,190.20681400000467,191.43587837502128,stand,correct,1.2353162500075996,left,194.45257808300084,
stable,stand,stim_set/hard-vcom=4-67.png,194.49642525002128,196.15437154102256,fall,correct,1.668635916983476,right,199.17494191601872,
stable,stand,stim_set/easy-538.png,199.21699945800356,200.5191477080225,fall,correct,1.307501165982103,right,203.5347538330243,
stable,stand,stim_set/easy-63.png,203.5778962080076,204.81233375001466,fall,correct,1.2452242500148714,right,207.83365000001504,
stable,stand,stim_set/easy-vcom=1-83.png,207.87092862502323,209.22956704100943,stand,correct,1.3694219999888446,left,212.2502752500004,
stable,stand,stim_set/hard-563.png,212.29884220802342,213.77747958301916,stand,correct,1.4842702920141164,left,216.7936719999998,
stable,stand,stim_set/hard-vcom=4-130.png,216.83743537502596,218.83588104101364,fall,correct,2.0036671249836218,right,221.85240520801744,
stable,stand,stim_set/hard-vcom=1-3.png,221.8967187910166,223.29420437500812,stand,correct,1.403704333002679,left,226.31061745801708,
stable,stand,stim_set/easy-590.png,226.35862441602512,227.86080545801087,fall,correct,1.5072797079919837,right,230.87732650002,
stable,stand,stim_set/easy-vcom=2-3.png,230.92300675000297,232.53780841600383,fall,correct,1.6259176669991575,right,235.5587170830113,
unstable,fall,stim_set/hard-439.png,241.93934541600174,243.79620358301327,fall,correct,1.8662456249876413,right,246.8170952500077,
unstable,fall,stim_set/hard-vcom=3-100.png,246.85869541601278,248.56087554100668,stand,incorrect,1.7084806249768008,left,251.57732483302243,
unstable,fall,stim_set/hard-271.png,251.62244895801996,252.8376376250235,stand,correct,1.2256756249989849,left,255.85873695800547,
unstable,fall,stim_set/hard-82.png,255.90353554100147,257.2962667500251,stand,correct,1.4029668339935597,left,260.31695683300495,
unstable,fall,stim_set/hard-2.png,260.361483708024,262.2959605830256,stand,correct,1.9452447920048144,left,265.31712641601916,
unstable,fall,stim_set/hard-vcom=2-144.png,265.3533622500254,266.58759887501947,stand,incorrect,1.2448469170194585,left,269.6083718330192,
unstable,fall,stim_set/hard-388.png,269.6444635410153,270.9295905410254,stand,correct,1.2954051659908146,left,273.950675583008,
unstable,fall,stim_set/easy-vcom=1-145.png,273.994691541011,275.14417445802246,stand,correct,1.1559185000078287,left,278.16087858300307,
unstable,fall,stim_set/hard-552.png,278.20513045802363,280.0859302080062,stand,correct,1.8864490409905557,left,283.10184004102484,
unstable,fall,stim_set/easy-vcom=4-19.png,283.14784537500236,285.9022445830051,fall,correct,2.760448707995238,right,288.91871812500176,
unstable,fall,stim_set/hard-vcom=2-20.png,288.9644595000136,290.20443108302425,stand,correct,1.2508483339915983,left,293.2261565000226,
unstable,fall,stim_set/hard-vcom=1-5.png,293.26800129102776,294.98794641601853,stand,correct,1.730148292001104,left,298.0083250000025,
unstable,fall,stim_set/easy-vcom=4-4.png,298.05044166601147,299.3691887500172,fall,correct,1.3245853330008686,right,302.3852742910094,
unstable,fall,stim_set/hard-590.png,302.43013350002,304.5874872910208,fall,correct,2.168267166998703,right,307.6084804580023,
unstable,fall,stim_set/hard-21.png,307.64997208301793,309.50223554100376,stand,correct,1.859028250008123,left,312.51941679100855,
unstable,fall,stim_set/easy-121.png,312.5660971250036,313.84421250000014,fall,incorrect,1.2838776249845978,right,316.8601653330261,
unstable,fall,stim_set/hard-556.png,316.9011899160105,318.38589254100225,stand,correct,1.4909022089850623,left,321.4026011250098,
unstable,fall,stim_set/hard-345.png,321.44431550000445,322.76920304101077,fall,correct,1.330533624975942,right,325.7850691660133,
unstable,fall,stim_set/hard-442.png,325.83183512502,327.51929341600044,stand,correct,1.693158999987645,left,330.5353144580149,
unstable,fall,stim_set/easy-13.png,330.5818445830082,332.0193788750039,fall,correct,1.4426849170122296,right,335.0348382910015,
unstable,fall,stim_set/easy-77.png,335.0769692080212,336.7626483750064,fall,correct,1.6968077920028009,right,339.7841492500156,
unstable,fall,stim_set/easy-vcom=3-136.png,339.8237205830228,341.8026368750143,fall,incorrect,1.9845967910077889,right,344.8188766660169,
unstable,fall,stim_set/hard-382.png,344.85499025002355,345.9022823750274,stand,correct,1.053644958010409,left,348.9188600410125,
unstable,fall,stim_set/hard-432.png,348.9648621250235,350.00456562501495,fall,correct,1.0505425829906017,right,353.0258457910095,
unstable,fall,stim_set/hard-371.png,353.0617722910247,355.36094833302195,stand,correct,2.304821333993459,left,358.37697916600155,
unstable,stand,stim_set/easy-13.png,3.2652180420118384,4.787274333008099,fall,correct,1.5268297500151675,right,7.803284082998289,
unstable,stand,stim_set/hard-442.png,7.849630457989406,9.397961999988183,stand,correct,1.5585920410230756,left,12.418393208005,
unstable,stand,stim_set/hard-271.png,12.46383395799785,14.605799999990268,stand,correct,2.1526907499937806,left,17.62686637500883,
unstable,stand,stim_set/hard-21.png,17.668520667008124,18.955376208003145,stand,correct,1.298131249990547,left,21.977226832997985,
unstable,stand,stim_set/easy-121.png,22.024314208014403,23.263703542004805,fall,incorrect,1.2505591249791905,right,26.285470708011417,
unstable,stand,stim_set/easy-vcom=3-136.png,26.32547933299793,27.622273832996143,fall,incorrect,1.3077294999966398,right,30.64310304200626,
unstable,stand,stim_set/hard-439.png,30.685540375008713,32.022341333009535,stand,incorrect,1.3473715420113876,left,35.04314275001525,
unstable,stand,stim_set/hard-vcom=3-100.png,35.0848121670133,36.47042541700648,stand,incorrect,1.392003749992,left,39.48686879200977,
unstable,stand,stim_set/hard-552.png,39.53136845800327,41.987071292009205,stand,correct,2.462578874983592,left,45.00383220799267,
unstable,stand,stim_set/hard-vcom=2-20.png,45.04953687501256,46.189104832999874,stand,correct,1.1503390420111828,left,49.209874249994755,
unstable,stand,stim_set/easy-vcom=4-4.png,49.2521086249908,50.37881487500272,fall,correct,1.132631374988705,right,53.39530450000893,
unstable,stand,stim_set/hard-371.png,53.43202733300859,55.33709225000348,fall,incorrect,1.9107583340082783,right,58.35271920799278,
unstable,stand,stim_set/hard-345.png,58.39484929200262,60.83082587498939,stand,incorrect,2.4466139580181334,left,63.85208995800349,
unstable,stand,stim_set/hard-388.png,63.88983983299113,64.93684058298822,stand,correct,1.053011083015008,left,67.95322424999904,
unstable,stand,stim_set/hard-556.png,67.9955580419919,69.30382533298689,stand,correct,1.3142432500026189,left,72.31995425000787,
unstable,stand,stim_set/hard-vcom=2-144.png,72.35770591700566,73.587064249994,stand,incorrect,1.2347477500152308,left,76.603232458001,
unstable,stand,stim_set/hard-382.png,76.64020749999327,77.67228595798952,stand,correct,1.0430192910134792,left,80.69332374999067,
unstable,stand,stim_set/hard-2.png,80.73903545801295,82.84560845801025,stand,correct,2.112087250017794,left,85.86124633299187,
unstable,stand,stim_set/hard-590.png,85.90730087499833,87.6620910000056,fall,correct,1.7610325409914367,right,90.6788355000026,
unstable,stand,stim_set/easy-vcom=1-145.png,90.7244069169974,93.43864016700536,stand,correct,2.7250630840135273,left,96.45980170799885,
unstable,stand,stim_set/easy-vcom=4-19.png,96.50730170801398,98.12053537499742,fall,correct,1.6188929590280168,right,101.1364019580069,
unstable,stand,stim_set/hard-vcom=1-5.png,101.1796371669916,102.33878212500713,stand,correct,1.1703143329941668,left,105.36080491699977,
unstable,stand,stim_set/easy-77.png,105.4041150000121,106.45387770800153,fall,correct,1.0562804579967633,right,109.47067425001296,
unstable,stand,stim_set/hard-432.png,109.51821320800809,110.67051762499614,fall,correct,1.1581750829936936,right,113.68669525001314,
unstable,stand,stim_set/hard-82.png,113.73339604199282,115.83710974999121,fall,incorrect,2.1096722499933094,right,118.8532510829973,
unstable,NA,stim_set/easy-vcom=1-145.png,130.65576383299776,132.12879399998928,stand,correct,1.478449999995064,left,135.14584199999808,
unstable,NA,stim_set/hard-2.png,135.1908151670068,137.03057470801286,fall,incorrect,1.8504019170068204,right,140.05151420799666,
unstable,NA,stim_set/easy-vcom=3-136.png,140.09296804200858,141.20561787500628,fall,incorrect,1.1237015830120072,right,144.2268103749957,
unstable,NA,stim_set/hard-vcom=2-144.png,144.26334866700927,145.80525845801458,stand,incorrect,1.5531127089925576,left,148.82692745799432,
unstable,NA,stim_set/hard-382.png,148.86331862499355,149.94554600000265,stand,correct,1.0876870829961263,left,152.96128099999623,
unstable,NA,stim_set/hard-388.png,152.99746537499595,154.82884770800592,stand,correct,1.8379288330033887,left,157.84555520801223,
unstable,NA,stim_set/easy-vcom=4-4.png,157.88897529200767,159.08721075000358,fall,correct,1.204200582986232,right,162.10300637499313,
unstable,NA,stim_set/hard-vcom=3-100.png,162.1465117080079,164.5705175829935,stand,incorrect,2.4299027909873985,left,167.5862339999876,
unstable,NA,stim_set/hard-439.png,167.63055500001065,168.70381274999818,fall,correct,1.0793941250012722,right,171.72021095801028,
unstable,NA,stim_set/hard-371.png,171.75650704200962,173.1536826250085,fall,incorrect,1.4028844999847934,right,176.16967770800693,
unstable,NA,stim_set/hard-442.png,176.21756487499806,177.89553241699468,fall,incorrect,1.6834311669808812,right,180.91147495800396,
unstable,NA,stim_set/hard-vcom=2-20.png,180.95835366699612,181.98709800001234,stand,correct,1.0343466670019552,left,185.0031190419977,
unstable,NA,stim_set/hard-556.png,185.04376912501175,186.07064466699376,stand,correct,1.0327384170086589,left,189.08657600000151,
unstable,NA,stim_set/easy-121.png,189.13519154200912,190.30357945800642,fall,incorrect,1.174814083991805,right,193.3200910000014,
unstable,NA,stim_set/hard-21.png,193.3628524169908,194.53725041699363,stand,correct,1.1798021669965237,left,197.5532543330046,
unstable,NA,stim_set/hard-345.png,197.59565783300786,198.80603350000456,fall,correct,1.2207944999972824,right,201.8267356250144,
unstable,NA,stim_set/hard-590.png,201.87172479199944,203.08081170800142,fall,correct,1.219664207979804,right,206.10195191699313,
unstable,NA,stim_set/easy-13.png,206.15041983299307,207.15378983301343,fall,correct,1.0085842919943389,right,210.1701692919887,
unstable,NA,stim_set/easy-vcom=4-19.png,210.21645599999465,211.33060575000127,fall,correct,1.1249902080162428,right,214.35132737501408,
unstable,NA,stim_set/hard-271.png,214.39837766700657,216.09559208300197,fall,incorrect,1.7028425419994164,right,219.11147187498864,
unstable,NA,stim_set/hard-552.png,219.15765641699545,220.33706766698742,stand,correct,1.1858284580230247,left,223.35357554198708,
unstable,NA,stim_set/easy-77.png,223.39568420799333,224.52052287501283,fall,correct,1.130505584005732,right,227.53696362499613,
unstable,NA,stim_set/hard-82.png,227.5815107919916,229.01424487499753,stand,correct,1.4433412499784026,left,232.03502591699362,
unstable,NA,stim_set/hard-vcom=1-5.png,232.07653087499784,233.65380137501052,stand,correct,1.5835035420022905,left,236.67037033301312,
unstable,NA,stim_set/hard-432.png,236.7166486250062,237.79515424999408,fall,correct,1.0843407920037862,right,240.811317374988,
unstable,NA,stim_set/hard-vcom=1-5.png,247.4280894580006,248.94562666700222,fall,incorrect,1.5217785830027424,right,251.96166958299,
unstable,NA,stim_set/hard-556.png,252.0025794999965,253.71369941701414,stand,correct,1.7228611249884125,left,256.7352918749966,
unstable,NA,stim_set/hard-439.png,256.77763287498965,259.20385333299055,fall,correct,2.431350458995439,right,262.2197212500032,
unstable,NA,stim_set/easy-121.png,262.26690399998915,264.7955825419922,fall,incorrect,2.533806999999797,right,267.8111681250157,
unstable,NA,stim_set/hard-345.png,267.85530516700237,268.87880166701507,fall,correct,1.0291394160012715,right,271.89525375000085,
unstable,NA,stim_set/easy-vcom=1-145.png,271.9394770830113,273.28706429200247,stand,correct,1.3536708750179969,left,276.3033166670066,
unstable,NA,stim_set/hard-388.png,276.3395346670004,279.00529262499185,stand,correct,2.677163416024996,left,282.0271585829905,
unstable,NA,stim_set/easy-vcom=4-19.png,282.07324179200805,283.65380100000766,fall,correct,1.5861164999951143,right,286.6693209169898,
unstable,NA,stim_set/hard-vcom=2-144.png,286.7055714169983,288.18870212501497,stand,incorrect,1.4943606250162702,left,291.21001450001495,
unstable,NA,stim_set/hard-2.png,291.25476974999765,293.2288029170013,stand,correct,1.980182916013291,left,296.2454143750074,
unstable,NA,stim_set/hard-590.png,296.2906615830143,297.40579079199233,fall,correct,1.1261033329938073,right,300.42747349999263,
unstable,NA,stim_set/hard-21.png,300.46884495799895,301.5788168750005,stand,correct,1.115951457992196,left,304.5951277500135,
unstable,NA,stim_set/hard-82.png,304.6398842500057,305.93723920799675,fall,incorrect,1.3031511660083197,right,308.95353583298856,
unstable,NA,stim_set/easy-13.png,309.0001521249942,310.61228062500595,stand,incorrect,1.6178992500063032,left,313.62876054199296,
unstable,NA,stim_set/easy-77.png,313.67105699999956,314.6705242920143,fall,correct,1.0054461249965243,right,317.68715766700916,
unstable,NA,stim_set/easy-vcom=4-4.png,317.7293868330016,318.8538539579895,fall,correct,1.1303607079898939,right,321.8699732919922,
unstable,NA,stim_set/hard-vcom=3-100.png,321.9118516249873,323.31225970800733,stand,incorrect,1.406222583987983,left,326.328260957991,
unstable,NA,stim_set/hard-371.png,326.3644140000106,327.49699616699945,fall,incorrect,1.1439098750124685,right,330.5185545000131,
unstable,NA,stim_set/easy-vcom=3-136.png,330.5588665830146,331.7622694580059,fall,incorrect,1.2098109170037787,right,334.77872025000397,
unstable,NA,stim_set/hard-432.png,334.82503800000995,335.93916416700813,fall,correct,1.1251075000036508,right,338.96024333301466,
unstable,NA,stim_set/hard-vcom=2-20.png,339.0058767920127,340.2371007500042,stand,correct,1.2374915000109468,left,343.2538310830132,
unstable,NA,stim_set/hard-442.png,343.30025416699937,344.82885204200284,fall,incorrect,1.5347239159746096,right,347.8454680000141,
unstable,NA,stim_set/hard-552.png,347.8902112499927,349.18722612501006,stand,correct,1.303123042016523,left,352.2037587079976,
unstable,NA,stim_set/hard-271.png,352.24897158300155,353.9285914170032,fall,incorrect,1.6856648749962915,right,356.9447009169962,
unstable,NA,stim_set/hard-382.png,356.9809093750082,358.06224979201215,stand,correct,1.087024417007342,left,361.07877641700907,
