batch_type,motivation,towers,trial_start,stim_on,choice,acc,rt,key,trial_end,score
unstable,stand,stim_set/hard-78.png,25.108386249979958,29.1091346659814,fall,incorrect,4.003889124986017,right,32.12873379100347,215.0
unstable,stand,stim_set/hard-280.png,32.17847091599833,37.18569225000101,NA,,,NA,42.165389582980424,
unstable,stand,stim_set/hard-441.png,42.20726895797998,43.84454466600437,fall,correct,1.6476823330158368,right,46.86594191598124,
unstable,stand,stim_set/easy-164.png,46.913907540991204,48.66779624999617,fall,correct,1.7596607090090401,right,51.684723749989644,
unstable,stand,stim_set/hard-vcom=4-147.png,51.73310341598699,53.019453707995126,stand,correct,1.2968923330190592,left,56.040508125006454,
unstable,stand,stim_set/easy-411.png,56.08885241599637,57.45092133298749,fall,correct,1.3672020409721881,right,60.46752833298524,
unstable,stand,stim_set/easy-vcom=1-12.png,60.51497104100417,62.54277391600772,stand,correct,2.0332068339921534,left,65.55844337499002,
unstable,stand,stim_set/hard-440.png,65.60247149999486,66.62608141600504,fall,correct,1.0296469579916447,right,69.64251645799959,
unstable,stand,stim_set/easy-318.png,69.68877379098558,71.06130899998243,fall,correct,1.3833664580015466,right,74.08227466599783,
unstable,stand,stim_set/easy-586.png,74.12830104099703,76.67609791600262,fall,correct,2.5542259580106474,right,79.6926077909884,
unstable,stand,stim_set/easy-542.png,79.73961837499519,81.02618854100001,fall,correct,1.2920419169822708,right,84.0420836249832,
unstable,stand,stim_set/hard-vcom=4-27.png,84.09074116600095,86.92768008299754,stand,incorrect,2.8481953750015236,left,89.94952545798151,
unstable,stand,stim_set/hard-vcom=1-92.png,89.99766537500545,91.36102549999487,fall,correct,1.3743062909925357,right,94.38232279100339,
unstable,stand,stim_set/hard-vcom=4-139.png,94.4261740410002,96.30113124998752,stand,correct,1.881026125018252,left,99.31756850000238,
unstable,stand,stim_set/hard-vcom=3-142.png,99.36556662499788,101.00301129100262,stand,correct,1.6485022919951007,left,104.02380945798359,
unstable,stand,stim_set/hard-vcom=2-95.png,104.06110695798998,106.55960124998819,stand,correct,2.503968500008341,left,109.5760350409837,
unstable,stand,stim_set/hard-286.png,109.62452379098977,112.21049724999466,stand,correct,2.5974028749915306,left,115.2321167080081,
unstable,stand,stim_set/hard-600.png,115.27055891600321,118.19257379099145,stand,correct,2.928182541014394,left,121.20864641599474,
unstable,stand,stim_set/hard-vcom=4-88.png,121.25153754098574,124.00100925000152,stand,correct,2.755427124997368,left,127.01756208299776,
unstable,stand,stim_set/easy-28.png,127.06379720798577,128.95282858298742,fall,correct,1.8996739170106594,right,131.97373337499448,
unstable,stand,stim_set/easy-vcom=2-73.png,132.01669112499803,134.75128195798607,fall,correct,2.7394852500001434,right,137.76689941599034,
unstable,stand,stim_set/hard-555.png,137.81041937498958,141.25957891598227,stand,correct,3.454543083993485,left,144.2759326249943,
unstable,stand,stim_set/hard-vcom=4-22.png,144.3246388330008,146.31939799999236,stand,correct,2.0056032499996945,left,149.34129470799235,
unstable,stand,stim_set/hard-14.png,149.37883695799974,152.45121295799618,stand,incorrect,3.0779574580083136,left,155.46754237500136,
unstable,stand,stim_set/easy-304.png,155.51308670800063,157.50285058299778,fall,incorrect,2.00040866699419,right,160.5236090410035,
stable,NA,stim_set/easy-233.png,173.58480383298593,175.61954287500703,fall,correct,2.044237833004445,right,178.64059424999868,
stable,NA,stim_set/hard-vcom=1-95.png,178.68395354098175,181.84465195800294,stand,correct,3.171845958015183,left,184.86593583298963,
stable,NA,stim_set/easy-vcom=3-121.png,184.912632749998,185.73461104099988,fall,correct,0.827562125021359,right,188.75070104098995,
stable,NA,stim_set/easy-344.png,188.79298954099067,191.71772279098514,fall,correct,2.9312091669999063,right,194.73414033299196,
stable,NA,stim_set/hard-vcom=4-23.png,194.7777375000005,196.5095953749842,stand,correct,1.737687041022582,left,199.52579370798776,
stable,NA,stim_set/hard-vcom=4-132.png,199.56749129100353,203.11804645799566,stand,correct,3.5559733750123996,left,206.13381800000207,
stable,NA,stim_set/easy-8.png,206.17593404100626,207.35965358300018,fall,correct,1.1889363749942277,right,210.37544920798973,
stable,NA,stim_set/easy-195.png,210.41881720800302,212.20326199999545,fall,correct,1.7946053330088034,right,215.22399458300788,
stable,NA,stim_set/hard-vcom=3-143.png,215.26736866598367,219.30256237499998,stand,correct,4.046217249997426,left,222.32401058299,
stable,NA,stim_set/easy-239.png,222.37015145798796,225.1780434579996,fall,correct,2.8186070829979144,right,228.19953812498716,
stable,NA,stim_set/hard-214.png,228.24698395800078,232.37628579098964,stand,correct,4.134923125006026,left,235.392537000007,
stable,NA,stim_set/hard-vcom=1-130.png,235.43562924998696,237.94461920799222,stand,correct,2.5199033340031747,left,240.9657603329979,
stable,NA,stim_set/hard-vcom=2-100.png,241.0109182499873,243.75961574999383,stand,correct,2.7547249580093194,left,246.77604999998584,
stable,NA,stim_set/hard-599.png,246.81468033298734,250.15277245797915,stand,correct,3.3487981249927543,left,253.17376633299864,
stable,NA,stim_set/easy-11.png,253.21778766598436,254.7347482079931,fall,correct,1.522661708004307,right,257.7508633749967,
stable,NA,stim_set/easy-228.png,257.7888997499831,260.2930918750062,fall,correct,2.5095903750043362,right,263.3097222079814,
stable,NA,stim_set/hard-410.png,263.35748199999216,265.4195042079955,fall,correct,2.073142832989106,right,268.44055558298714,
stable,NA,stim_set/hard-576.png,268.47878908299026,272.5113582079939,fall,incorrect,4.043468332994962,right,275.53248983298545,
stable,NA,stim_set/hard-369.png,275.57002458299394,277.7859031249827,stand,incorrect,2.227973708009813,left,280.8077067080012,
stable,NA,stim_set/easy-vcom=1-87.png,280.85476195800584,285.58455262499047,fall,incorrect,4.735134415997891,right,288.6002326250018,
stable,NA,stim_set/hard-492.png,288.6455322910042,290.7782366249885,fall,incorrect,2.142867707996629,right,293.79897754098056,
stable,NA,stim_set/hard-vcom=3-82.png,293.84511337499134,297.5759467080061,fall,incorrect,3.7367895420175046,right,300.5927106659801,
stable,NA,stim_set/easy-122.png,300.63664537499426,301.97782241599634,fall,incorrect,1.3520001670112833,right,304.99895275000017,
stable,NA,stim_set/easy-vcom=3-106.png,305.04273041599663,307.443102833,stand,correct,2.406683957990026,left,310.4594387499965,
stable,NA,stim_set/hard-vcom=3-145.png,310.4972414999793,313.80134754098253,stand,incorrect,3.309170874999836,left,316.8170345829858,
stable,stand,stim_set/hard-vcom=1-95.png,335.0921614159888,338.26790941599756,fall,incorrect,3.1800736250006594,right,341.28414604099817,
stable,stand,stim_set/easy-233.png,341.3313924160029,344.8595873329905,fall,correct,3.533908709010575,right,347.87588837498333,
stable,stand,stim_set/hard-vcom=3-145.png,347.9122071659949,351.9696750830044,stand,incorrect,4.0683724579866976,left,354.9904987909831,
stable,stand,stim_set/easy-239.png,355.03761637498974,356.91940183300176,fall,correct,1.8922556249890476,right,359.94039604099817,
stable,stand,stim_set/hard-576.png,359.9763610829832,364.9864067079907,NA,,,NA,371.5560954999819,
stable,stand,stim_set/hard-214.png,371.60310033298447,374.22635420798906,stand,correct,2.6291236660035793,left,377.2432199159812,
stable,stand,stim_set/hard-vcom=1-130.png,377.28579045800143,380.7449680409918,stand,correct,3.469746458984446,left,383.76569070797996,
stable,stand,stim_set/easy-195.png,383.80834550000145,385.1096158750006,fall,correct,1.3067138330079615,right,388.1260331249796,
stable,stand,stim_set/hard-vcom=3-82.png,388.1705315829895,390.15141766599845,stand,correct,1.9865748330194037,left,393.16722641600063,
stable,stand,stim_set/easy-122.png,393.210582041007,394.434827916004,fall,incorrect,1.2298780419805553,right,397.45176795800216,
stable,stand,stim_set/easy-vcom=1-87.png,397.497106625,400.6766367079981,fall,incorrect,3.185338125011185,right,403.69245349999983,
stable,stand,stim_set/easy-344.png,403.7344923329947,404.6598720829934,fall,correct,0.9313703750085551,right,407.67616254099994,
stable,stand,stim_set/hard-vcom=2-100.png,407.71853562499746,409.7181014159869,stand,correct,2.0053567090071738,left,412.7346185409988,
stable,stand,stim_set/easy-11.png,412.7771152079804,413.8099469160079,fall,correct,1.0386212500161491,right,416.8264558329829,
stable,stand,stim_set/hard-599.png,416.8624974580016,420.4681197909813,fall,incorrect,3.6118866250035353,right,423.4846883749997,
stable,stand,stim_set/hard-492.png,423.52823699999135,427.2348865410022,stand,correct,3.71266179200029,left,430.25122524998733,
stable,stand,stim_set/easy-228.png,430.28728441600106,431.445034415985,fall,correct,1.1682110000110697,right,434.46569958300097,
stable,stand,stim_set/easy-8.png,434.5068480409973,435.98512820800534,fall,correct,1.483666042011464,right,439.00063641599263,
stable,stand,stim_set/hard-410.png,439.04656170800445,441.84496512499754,stand,incorrect,2.808961333008483,left,444.86588937498163,
stable,stand,stim_set/hard-vcom=4-23.png,444.90905604098225,446.8195168329985,stand,correct,1.9214502920222003,left,449.8409521660069,
stable,stand,stim_set/hard-369.png,449.8771738749929,452.8117788749805,fall,correct,2.945590457995422,right,455.8329747910029,
stable,stand,stim_set/easy-vcom=3-121.png,455.8785014580062,459.02027120799175,stand,incorrect,3.152391000010539,left,462.0411770000064,
stable,stand,stim_set/easy-vcom=3-106.png,462.0829955409863,465.8682704579842,stand,correct,3.7916467909817584,left,468.88469658300164,
stable,stand,stim_set/hard-vcom=4-132.png,468.92582270799903,471.01190920799854,stand,correct,2.0968058749858756,left,474.0324200000032,
stable,stand,stim_set/hard-vcom=3-143.png,474.0746758329915,478.00163937499747,stand,correct,3.9327830410038587,left,481.0174095830007,
stable,NA,stim_set/easy-vcom=4-126.png,3.36381920799613,6.616582540998934,stand,incorrect,3.2575177079997957,left,9.632631540996954,
stable,NA,stim_set/hard-570.png,9.680637500016019,13.39294666601927,stand,correct,3.723644624988083,left,16.41436754100141,
stable,NA,stim_set/hard-563.png,16.46279954101192,20.31642083299812,fall,incorrect,3.8587299999780953,right,23.33235149999382,
stable,NA,stim_set/hard-451.png,23.378942583018215,25.843050291005056,fall,correct,2.4753099999797996,right,28.864782040996943,
stable,NA,stim_set/hard-vcom=4-130.png,28.90854508301709,32.47444774999167,stand,incorrect,3.5714205839904025,left,35.49036145801074,
stable,NA,stim_set/easy-vcom=1-83.png,35.53021512500709,37.11777341601555,stand,correct,1.5982851670123637,left,40.13917574999505,
stable,NA,stim_set/hard-367.png,40.18310229101917,43.48290991599788,stand,correct,3.3059672089875676,left,46.49962095799856,
stable,NA,stim_set/easy-vcom=3-142.png,46.546307582990266,51.05815612501465,fall,incorrect,4.517291958996793,right,54.07470741600264,
stable,NA,stim_set/hard-vcom=2-45.png,54.113017583003966,56.53481087501859,stand,incorrect,2.433192416006932,left,59.55640633299481,
stable,NA,stim_set/easy-vcom=4-69.png,59.60320620800485,63.658173000003444,stand,incorrect,4.061225208017277,left,66.67461612500483,
stable,NA,stim_set/easy-vcom=1-73.png,66.71273475000635,68.91646491599386,stand,correct,2.2097540840040892,left,71.93318583301152,
stable,NA,stim_set/easy-vcom=3-125.png,71.98128308300511,73.94330633300706,fall,incorrect,1.972499958006665,right,76.96410562499659,
stable,NA,stim_set/hard-40.png,77.01066866601468,78.2665590410179,stand,correct,1.2615951250190847,left,81.28295833300217,
stable,NA,stim_set/easy-590.png,81.33093133301008,82.63322629101458,fall,correct,1.3076165420061443,right,85.64892104099272,
stable,NA,stim_set/easy-vcom=2-3.png,85.69418812499498,88.21630299999379,fall,correct,2.52837533300044,right,91.23286558300606,
stable,NA,stim_set/hard-vcom=4-67.png,91.27688058299827,95.52495141600957,stand,incorrect,4.253690333018312,left,98.54107800000929,
stable,NA,stim_set/easy-63.png,98.58469508300186,100.49386258301092,fall,correct,1.9193696249858476,right,103.51435404099175,
stable,NA,stim_set/hard-vcom=4-45.png,103.55955983299646,107.35819299999275,fall,correct,3.804399332992034,right,110.37415170800523,
stable,NA,stim_set/hard-vcom=2-16.png,110.42223749999539,112.32494841600419,stand,correct,1.909102375007933,left,115.3416559160105,
stable,NA,stim_set/easy-538.png,115.3838539159915,116.61622316599824,fall,correct,1.2386152499821037,right,119.63243041600799,
stable,NA,stim_set/hard-vcom=1-3.png,119.67699300000095,120.9832284580043,stand,correct,1.312459958018735,left,123.99972591601545,
stable,NA,stim_set/hard-474.png,124.04284862501663,126.22638316600933,fall,correct,2.1944910000020172,right,129.24821954101208,
stable,NA,stim_set/easy-280.png,129.29188554099528,130.5166586659907,fall,correct,1.2306938749970868,right,133.53308533300878,
stable,NA,stim_set/easy-31.png,133.57859170800657,134.88320404099068,fall,incorrect,1.3103817910014186,right,137.8999879579933,
stable,NA,stim_set/easy-20.png,137.94369116600137,139.63453195799957,fall,correct,1.7021051250048913,right,142.6561409580172,
unstable,fall,stim_set/hard-vcom=3-142.png,153.35585179101327,155.48323341601645,stand,correct,2.1317034999956377,left,158.49959208301152,
unstable,fall,stim_set/hard-vcom=4-139.png,158.54358433300513,160.45002441600082,stand,correct,1.9127216250053607,left,163.46597708301852,
unstable,fall,stim_set/hard-286.png,163.51397791600903,167.26667308300966,fall,incorrect,3.7585836660000496,right,170.28300954101724,
unstable,fall,stim_set/hard-vcom=4-88.png,170.3255336250004,173.97502237500157,stand,correct,3.6551499589986634,left,176.99072016600985,
unstable,fall,stim_set/hard-441.png,177.0326243750169,179.2932694159972,stand,incorrect,2.2718185420089867,left,182.31487887501135,
unstable,fall,stim_set/hard-vcom=2-95.png,182.35220458300319,184.6095987909939,stand,correct,2.269018791994313,left,187.63199766600155,
unstable,fall,stim_set/hard-vcom=1-92.png,187.68004670800292,188.80825579099474,fall,correct,1.133979291014839,right,191.8243820409989,
unstable,fall,stim_set/easy-411.png,191.87162741599604,193.65997612499632,fall,correct,1.7996200420020614,right,196.6810838750098,
unstable,fall,stim_set/easy-586.png,196.72685116599314,199.23302195800352,fall,correct,2.511676374997478,right,202.24945408300846,
unstable,fall,stim_set/easy-304.png,202.2950667499972,204.12674300000072,fall,incorrect,1.8433339589973912,right,207.14774891600246,
unstable,fall,stim_set/hard-600.png,207.18582362501184,209.93338104101713,stand,correct,2.7531104999943636,left,212.94927666601143,
unstable,fall,stim_set/hard-vcom=4-147.png,212.99779287501588,214.8749620830058,stand,correct,1.882505499990657,left,217.89111637501628,
unstable,fall,stim_set/easy-164.png,217.93878429100732,219.2416796250036,fall,correct,1.3091605000081472,right,222.25783879100345,
unstable,fall,stim_set/easy-318.png,222.30349537500297,225.66830550000304,stand,incorrect,3.3757097920170054,left,228.68929875001777,
unstable,fall,stim_set/hard-78.png,228.73477366601583,233.3334625000134,stand,correct,4.604058917000657,left,236.34888891599257,
unstable,fall,stim_set/hard-14.png,236.38647491601296,237.87498704099562,stand,incorrect,1.494913667003857,left,240.89188970800024,
unstable,fall,stim_set/easy-vcom=1-12.png,240.9387832909997,243.3517221660004,stand,correct,2.4235210420156363,left,246.37279287501588,
unstable,fall,stim_set/easy-vcom=2-73.png,246.41510250000283,249.966710083012,fall,correct,3.557589292002376,right,252.98279850001563,
unstable,fall,stim_set/hard-440.png,253.02649416599888,256.17497195801116,fall,correct,3.153750958997989,right,259.19083808301366,
unstable,fall,stim_set/easy-542.png,259.23727433299064,261.6667155000032,fall,correct,2.435447291994933,right,264.6824988750159,
unstable,fall,stim_set/hard-vcom=4-27.png,264.7307391659997,266.2436056250008,stand,incorrect,1.5231553750054445,left,269.2653769580065,
unstable,fall,stim_set/hard-vcom=4-22.png,269.31346854101866,272.11671462500817,stand,correct,2.8089035419980064,left,275.132951083011,
unstable,fall,stim_set/hard-555.png,275.17671633299324,278.5501411659934,stand,correct,3.3790610000141896,left,281.56654812500346,
unstable,fall,stim_set/hard-280.png,281.61433850001777,285.5518032500113,stand,correct,3.948356667009648,left,288.5729336249933,
unstable,fall,stim_set/easy-28.png,288.61858012501034,289.64171058300417,fall,correct,1.0286988749867305,right,292.65750212501734,
unstable,NA,stim_set/easy-vcom=3-136.png,299.56577708301484,302.1184634579986,fall,incorrect,2.562468791002175,right,305.1394827910117,
unstable,NA,stim_set/easy-vcom=4-4.png,305.1835110410175,308.5334783750004,stand,incorrect,3.356172041996615,left,311.55015820800327,
unstable,NA,stim_set/hard-82.png,311.5966847910022,313.17489062499953,stand,correct,1.5850870840076823,left,316.19206666600076,
unstable,NA,stim_set/hard-vcom=1-5.png,316.23549366599764,319.8835668330139,stand,correct,3.6538549170072656,left,322.89979754100204,
unstable,NA,stim_set/hard-2.png,322.94555670800037,326.8499320410192,stand,correct,3.910878374997992,left,329.8669857500063,
unstable,NA,stim_set/hard-vcom=3-100.png,329.9104955829971,331.98351416600053,stand,incorrect,2.0793293330061715,left,335.0001374580024,
unstable,NA,stim_set/easy-77.png,335.04385787501815,338.37696824999875,fall,correct,3.3438071249984205,right,341.397817457997,
unstable,NA,stim_set/hard-552.png,341.4435047080042,345.0916656659974,stand,correct,3.654086583002936,left,348.10870020801667,
unstable,NA,stim_set/hard-432.png,348.1567260409938,349.74390066601336,fall,correct,1.597731375019066,right,352.7643137499981,
unstable,NA,stim_set/hard-vcom=2-20.png,352.81136395799695,355.1436552910018,stand,correct,2.3430943750136066,left,358.1649794160039,
unstable,NA,stim_set/easy-121.png,358.21306587499566,361.24169645801885,fall,incorrect,3.03515670899651,right,364.2582072910154,
unstable,NA,stim_set/easy-vcom=4-19.png,364.3060687080142,365.4834078749991,stand,incorrect,1.1834041250112932,left,368.5001025829988,
unstable,NA,stim_set/hard-371.png,368.5382460830151,370.27516099999775,fall,incorrect,1.742562999977963,right,373.2911923750071,
unstable,NA,stim_set/easy-13.png,373.3391149160161,375.49194624999654,fall,correct,2.1587602919898927,right,378.50860562501475,
unstable,NA,stim_set/hard-388.png,378.54639962501824,380.5752402500075,stand,correct,2.035204165993491,left,383.59160570800304,
unstable,NA,stim_set/hard-442.png,383.6399098749971,386.61699270800455,stand,correct,2.9832821669988334,left,389.6330391660158,
unstable,NA,stim_set/hard-439.png,389.6770303329977,390.87522391599487,fall,correct,1.2040674159943592,right,393.89101762499195,
unstable,NA,stim_set/hard-382.png,393.92816020801547,398.1002055830031,fall,incorrect,4.177806041989243,right,401.11648383300053,
unstable,NA,stim_set/hard-21.png,401.1590278329968,402.1584717910155,stand,correct,1.0053793340048287,left,405.1751953329949,
unstable,NA,stim_set/hard-590.png,405.22084191601607,408.6750129580032,stand,incorrect,3.4602296669909265,left,411.6913699580182,
unstable,NA,stim_set/hard-345.png,411.7350993750151,414.28365483300877,stand,incorrect,2.5542797910165973,left,417.29973483301,
unstable,NA,stim_set/hard-271.png,417.3470459160162,422.1252457910159,fall,incorrect,4.783467583009042,right,425.14119445800316,
unstable,NA,stim_set/easy-vcom=1-145.png,425.1869401659933,426.86693637500866,stand,correct,1.6855944999842905,left,429.88312512499397,
unstable,NA,stim_set/hard-vcom=2-144.png,429.9208037079952,434.0504214579996,stand,incorrect,4.135094708006363,left,437.066351165995,
unstable,NA,stim_set/hard-556.png,437.10844766601804,441.4334344160161,stand,correct,4.330862667004112,left,444.4497581250034,
stable,stand,stim_set/hard-vcom=4-45.png,4.146569457981968,7.393738957995083,fall,correct,3.2513205829891376,right,10.409988708008314,
stable,stand,stim_set/hard-vcom=4-130.png,10.453818499983754,13.227178832981735,fall,correct,2.7793267499946523,right,16.243184291000944,
stable,stand,stim_set/hard-vcom=2-45.png,16.27905162499519,19.277162790996954,stand,incorrect,3.004233999992721,left,22.293036791001214,
stable,stand,stim_set/easy-vcom=4-126.png,22.340947916003643,26.968903415981913,fall,correct,4.633608457981609,right,29.985107082989998,
stable,stand,stim_set/easy-63.png,30.026600624987623,31.63732350000646,fall,correct,1.6218553749786224,right,34.65843983300147,
stable,stand,stim_set/easy-vcom=1-83.png,34.69626133298152,35.96897841600003,stand,correct,1.278530999989016,left,38.98520079100854,
stable,stand,stim_set/easy-vcom=2-3.png,39.02900862498791,42.26060999999754,fall,correct,3.237869333999697,right,45.276918582996586,
stable,stand,stim_set/easy-vcom=3-125.png,45.323973124992335,48.920619582990184,fall,incorrect,3.6049486250267364,right,51.94148275000043,
stable,stand,stim_set/easy-20.png,51.98386845798814,54.41889537498355,fall,correct,2.440392416989198,right,57.43481566599803,
stable,stand,stim_set/hard-vcom=2-16.png,57.48166258298443,59.28539408298093,stand,correct,1.8094428750046063,left,62.30155320800259,
stable,stand,stim_set/hard-vcom=4-67.png,62.343853375001345,64.96893729100702,stand,incorrect,2.630794083001092,left,67.98571199999424,
stable,stand,stim_set/easy-31.png,68.0297955829883,69.91260170799796,fall,incorrect,1.8932664589956403,right,72.93308529100614,
stable,stand,stim_set/hard-vcom=1-3.png,72.97601120799663,77.40233941600309,stand,correct,4.43233379200683,left,80.4182952499832,
stable,stand,stim_set/easy-vcom=1-73.png,80.45431545798783,83.58568291598931,stand,correct,3.1369458340050187,left,86.60179020799114,
stable,stand,stim_set/hard-367.png,86.64426912498311,90.52733504099888,stand,correct,3.888106333994074,left,93.5430836250016,
stable,stand,stim_set/easy-vcom=4-69.png,93.58911529098987,98.1273834159947,stand,incorrect,4.543826292006997,left,101.14336600000388,
stable,stand,stim_set/hard-570.png,101.19210058299359,104.52906174998498,stand,correct,3.347970125003485,left,107.55005683298805,
stable,stand,stim_set/hard-563.png,107.598530999996,112.60232687499956,NA,,,NA,116.84180008299882,
stable,stand,stim_set/hard-451.png,116.8885355409875,118.86065720798797,fall,correct,1.978166125016287,right,121.87692158299615,
stable,stand,stim_set/hard-40.png,121.92171258298913,126.70412920799572,stand,correct,4.793895499984501,left,129.72564887499902,
stable,stand,stim_set/hard-474.png,129.76764812498004,131.15414075000444,fall,correct,1.3971428330114577,right,134.17515045800246,
stable,stand,stim_set/easy-590.png,134.22354362500482,135.73740449998877,fall,correct,1.5247666249924805,right,138.75924491600017,
stable,stand,stim_set/easy-vcom=3-142.png,138.80518083300558,141.16246045799926,stand,correct,2.3679543749894947,left,144.18369741598144,
stable,stand,stim_set/easy-280.png,144.22721712500788,145.27741549999337,fall,correct,1.0560115000116639,right,148.2932660410006,
stable,stand,stim_set/easy-538.png,148.33525429098518,149.5211714580073,fall,correct,1.1958996250177734,right,152.54171933300677,
stable,fall,stim_set/hard-vcom=4-132.png,166.43160141599947,169.58559787500417,stand,correct,3.1587706669815816,left,172.60131108298083,
stable,fall,stim_set/hard-vcom=3-82.png,172.6474075409933,176.35244575000252,stand,correct,3.711250583000947,left,179.36884549999377,
stable,fall,stim_set/easy-vcom=3-121.png,179.4147884999984,182.12906633300008,fall,correct,2.7249773330113385,right,185.1505398330046,
stable,fall,stim_set/hard-vcom=3-145.png,185.18830887498916,188.93586024999968,stand,incorrect,3.753180166997481,left,191.95181574998423,
stable,fall,stim_set/easy-228.png,191.98967750000884,194.04412779098493,fall,correct,2.0601067910029087,right,197.06019291598932,
stable,fall,stim_set/hard-576.png,197.09765949999564,200.90235820799717,fall,incorrect,3.810431374993641,right,203.91844212499564,
stable,fall,stim_set/hard-599.png,203.9554080000089,206.14569854098954,stand,correct,2.2008126250002533,left,209.16705424999236,
stable,fall,stim_set/easy-195.png,209.21064670800115,210.971156124986,fall,correct,1.7710283749911468,right,213.99266349998652,
stable,fall,stim_set/easy-11.png,214.03644112500479,216.16068437500508,fall,correct,2.1296162090147845,right,219.17677408299642,
stable,fall,stim_set/easy-122.png,219.2207447499968,220.49415579100605,fall,incorrect,1.2792644590081181,right,223.51005058299052,
stable,fall,stim_set/hard-vcom=1-95.png,223.55360633300734,226.827483415982,fall,incorrect,3.279964374989504,right,229.84388733300148,
stable,fall,stim_set/easy-233.png,229.89157566599897,233.07929104098002,fall,correct,3.1984427499992307,right,236.1001664159994,
stable,fall,stim_set/easy-vcom=3-106.png,236.14404354098951,239.00413229098194,stand,correct,2.870672374992864,left,242.0249134580081,
stable,fall,stim_set/easy-239.png,242.07042195799295,243.6441607500019,fall,correct,1.5794064170040656,right,246.66051158300252,
stable,fall,stim_set/hard-410.png,246.70826300000772,249.43575937498827,stand,incorrect,2.7335100829950534,left,252.45203808299266,
stable,fall,stim_set/easy-vcom=1-87.png,252.4987361249805,257.1774586249958,fall,incorrect,4.6846296659787185,right,260.1935952079948,
stable,fall,stim_set/hard-vcom=2-100.png,260.2376957910019,262.2188757910044,stand,correct,1.9877368329907767,left,265.23602745798416,
stable,fall,stim_set/hard-492.png,265.2814706249919,267.3109110829828,stand,correct,2.0347075829922687,left,270.32653649998247,
stable,fall,stim_set/easy-344.png,270.3687905409897,272.3274258330057,fall,correct,1.9645966250100173,right,275.3437091659871,
stable,fall,stim_set/hard-369.png,275.381107291003,279.13592299999436,stand,incorrect,3.7600765420065727,left,282.15282708298764,
stable,fall,stim_set/hard-vcom=3-143.png,282.19587570798467,286.0123725410085,fall,incorrect,3.827162250003312,right,289.0333091659995,
stable,fall,stim_set/hard-vcom=4-23.png,289.0770906659891,292.6372547079809,stand,correct,3.5713699589832686,left,295.65899724999326,
stable,fall,stim_set/hard-214.png,295.70650804098113,299.26089849998243,stand,correct,3.559873541991692,left,302.27711125000496,
stable,fall,stim_set/easy-8.png,302.3195396660012,303.5294974579883,fall,correct,1.2207892909937073,right,306.5506804159959,
stable,fall,stim_set/hard-vcom=1-130.png,306.59376945800614,309.06916558300145,stand,correct,2.4807132089918014,left,312.08523095800774,
unstable,stand,stim_set/hard-vcom=4-139.png,323.21818791600526,325.37928616598947,stand,correct,2.1714541249966715,left,328.40087158299866,
unstable,stand,stim_set/easy-304.png,328.44618087500567,330.5942562909913,fall,incorrect,2.153693917003693,right,333.6104770829843,
unstable,stand,stim_set/easy-28.png,333.6561975000077,334.9109255000076,fall,correct,1.2602308339846786,right,337.9271276659856,
unstable,stand,stim_set/easy-vcom=2-73.png,337.9697754159861,340.2193536249979,fall,correct,2.255733041994972,right,343.23600874998374,
unstable,stand,stim_set/hard-78.png,343.28176579100545,348.036179540999,stand,correct,4.760101791995112,left,351.05263633298455,
unstable,stand,stim_set/hard-vcom=4-88.png,351.0954327500076,352.3296435409866,stand,correct,1.2451367089815903,left,355.3506952500029,
unstable,stand,stim_set/hard-441.png,355.3929955829808,358.76917633300764,fall,correct,3.382022957986919,right,361.7856915410084,
unstable,stand,stim_set/hard-14.png,361.82312579100835,364.85272279099445,stand,incorrect,3.035753125004703,left,367.8693093750044,
unstable,stand,stim_set/hard-286.png,367.91749341599643,369.254347915994,stand,correct,1.3478945410170127,left,372.27579995800625,
unstable,stand,stim_set/hard-vcom=4-22.png,372.3240294159914,373.97767462499905,stand,correct,1.6599268339923583,left,376.9942332500068,
unstable,stand,stim_set/hard-280.png,377.0415406249813,378.3043486249808,stand,correct,1.2738706659874879,left,381.326131290989,
unstable,stand,stim_set/hard-440.png,381.3705905409879,384.08590695800376,fall,correct,2.7212881250015926,right,387.1021093750023,
unstable,stand,stim_set/easy-164.png,387.149505999987,391.5628533329873,stand,incorrect,4.423902582988376,left,394.583943332982,
unstable,stand,stim_set/hard-600.png,394.6215532500064,398.7045541660045,fall,incorrect,4.09343274999992,right,401.7255353750079,
unstable,stand,stim_set/easy-vcom=1-12.png,401.773457333009,405.4776871659851,stand,correct,3.7100146670127288,left,408.4940494580078,
unstable,stand,stim_set/hard-vcom=1-92.png,408.5417589159915,410.69436962498,fall,correct,2.157640582998283,right,413.7108226249984,
unstable,stand,stim_set/easy-586.png,413.7561626249808,416.0361232080031,fall,correct,2.285724499990465,right,419.05228691600496,
unstable,stand,stim_set/easy-411.png,419.099829874991,421.42790424998384,fall,correct,2.3335434579930734,right,424.44365574998665,
unstable,stand,stim_set/easy-542.png,424.4903326659987,426.0943476659886,fall,correct,1.6099153330142144,right,429.1105331250001,
unstable,stand,stim_set/easy-318.png,429.15566929100896,431.9026647910068,fall,correct,2.75273241699324,right,434.91898270798265,
unstable,stand,stim_set/hard-vcom=2-95.png,434.9562440000009,437.5959687079885,stand,correct,2.6506255410204176,left,440.6174023329804,
unstable,stand,stim_set/hard-vcom=3-142.png,440.6652325000032,443.11252691599657,stand,correct,2.4578955420001876,left,446.1337000829808,
unstable,stand,stim_set/hard-555.png,446.1774746250012,448.9877445829916,stand,correct,2.821382333000656,left,452.00901054099086,
unstable,stand,stim_set/hard-vcom=4-147.png,452.05774116600514,454.4361374579894,stand,correct,2.383873000013409,left,457.45272279100027,
unstable,stand,stim_set/hard-vcom=4-27.png,457.5011068749882,462.16113849999965,fall,correct,4.665981083002407,right,465.177542874997,
unstable,NA,stim_set/easy-vcom=3-136.png,10.414935874985531,13.914338790986221,stand,correct,3.5037351670034695,left,16.930248707998544,
unstable,NA,stim_set/easy-vcom=1-145.png,16.97597412497271,18.19101258297451,stand,correct,1.2263100830023177,left,21.212304457993014,
unstable,NA,stim_set/hard-82.png,21.25869854100165,23.131102290994022,stand,correct,1.877770416002022,left,26.146884040994337,
unstable,NA,stim_set/hard-271.png,26.19390437498805,27.84781183299492,fall,incorrect,1.6595148330088705,right,30.86359258298762,
unstable,NA,stim_set/easy-vcom=4-4.png,30.9073917909991,34.016305540979374,stand,incorrect,3.1194779580109753,left,37.03768908299389,
unstable,NA,stim_set/hard-345.png,37.08114308299264,41.05611637499533,fall,correct,3.980939542001579,right,44.07206695797504,
unstable,NA,stim_set/hard-382.png,44.10967458298546,49.11434570798883,NA,,,NA,53.336164582986385,
unstable,NA,stim_set/hard-590.png,53.38315483299084,56.33086304098833,stand,incorrect,2.953549583995482,left,59.34732245799387,
unstable,NA,stim_set/hard-vcom=2-144.png,59.38604524999391,61.964397540985374,stand,incorrect,2.5849204169935547,left,64.98350329097593,
unstable,NA,stim_set/easy-121.png,65.03187979100039,68.15612079098355,fall,incorrect,3.129574875027174,right,71.17185929097468,
unstable,NA,stim_set/hard-439.png,71.21604466598365,72.94779358297819,fall,correct,1.7373336250020657,right,75.963401874993,
unstable,NA,stim_set/hard-371.png,76.00035283298348,77.52280433298438,fall,incorrect,1.5279116659949068,right,80.53823841598933,
unstable,NA,stim_set/hard-442.png,80.58625691599445,81.93941004099906,stand,correct,1.3591857499850448,left,84.95571449998533,
unstable,NA,stim_set/hard-vcom=1-5.png,84.99904412499745,87.29746604099637,stand,correct,2.303998874995159,left,90.3135679999832,
unstable,NA,stim_set/easy-77.png,90.35708908300148,91.44111241598148,fall,correct,1.0947004999907222,right,94.46221720799804,
unstable,NA,stim_set/hard-21.png,94.50506795797264,98.05603399997926,stand,correct,3.5569735000026412,left,101.07205079100095,
unstable,NA,stim_set/hard-388.png,101.11005633298191,103.82416412499151,stand,correct,2.7252553750004154,left,106.84515112498775,
unstable,NA,stim_set/hard-432.png,106.89309308299562,108.21615562497755,fall,correct,1.333506832976127,right,111.23698079099995,
unstable,NA,stim_set/hard-2.png,111.28288204097771,115.8559284999792,stand,correct,4.579297874995973,left,118.87210937499185,
unstable,NA,stim_set/easy-13.png,118.92002645798493,120.64763429097366,fall,correct,1.7335024579952005,right,123.66373349999776,
unstable,NA,stim_set/easy-vcom=4-19.png,123.71219408299658,126.41434733298956,stand,incorrect,2.7078424170031212,left,129.43053362498176,
unstable,NA,stim_set/hard-vcom=2-20.png,129.47835462499643,130.6410042079806,stand,correct,1.1736452079785522,left,133.66245329097728,
unstable,NA,stim_set/hard-552.png,133.7079139999987,136.56439274997683,stand,correct,2.8625549580028746,left,139.58101012499537,
unstable,NA,stim_set/hard-556.png,139.6229656249925,142.67263762498624,stand,correct,3.056303082994418,left,145.68967408299795,
unstable,NA,stim_set/hard-vcom=3-100.png,145.73304962497787,147.54107966599986,stand,incorrect,1.8187029580003582,left,150.5619360829878,
unstable,fall,stim_set/easy-164.png,158.1636032909737,160.9391061659844,fall,correct,2.7806931670056656,right,163.9556827909837,
unstable,fall,stim_set/hard-600.png,163.99210516599123,168.54763029099558,stand,correct,4.561436916992534,left,171.5631880829751,
unstable,fall,stim_set/hard-78.png,171.60883558299975,175.49088541598758,fall,incorrect,3.893724208988715,right,178.51239333298872,
unstable,fall,stim_set/hard-vcom=4-22.png,178.55894558297587,180.25612683297368,stand,correct,1.7037905420002062,left,183.27301154099405,
unstable,fall,stim_set/hard-vcom=4-147.png,183.31967674999032,184.50784258299973,stand,correct,1.198272082983749,left,187.52927454098244,
unstable,fall,stim_set/easy-411.png,187.5755288329965,189.30802295799367,fall,correct,1.7431713750120252,right,192.32942604098935,
unstable,fall,stim_set/easy-542.png,192.3746089579945,193.5978253329813,fall,correct,1.2290311660035513,right,196.6142854159989,
unstable,fall,stim_set/hard-14.png,196.65024199997424,198.75792637499399,stand,incorrect,2.1185079580172896,left,201.77918804099318,
unstable,fall,stim_set/hard-555.png,201.82137320798938,205.54778670798987,stand,correct,3.7328227079997305,left,208.56441670798813,
unstable,fall,stim_set/easy-28.png,208.60965116598527,209.73916954098968,fall,correct,1.1355483750230633,right,212.75527233298635,
unstable,fall,stim_set/hard-vcom=2-95.png,212.7912003749807,216.5475812079967,stand,correct,3.7621677909919526,left,219.5676759579801,
unstable,fall,stim_set/hard-280.png,219.61644058299134,222.13259279099293,stand,correct,2.527193250018172,left,225.154513165995,
unstable,fall,stim_set/hard-vcom=4-139.png,225.19861974997912,226.48306049997336,stand,correct,1.2950081250164658,left,229.50415087500005,
unstable,fall,stim_set/easy-vcom=1-12.png,229.55142183299176,232.48113404097967,stand,correct,2.9354945000086445,left,235.49772995797684,
unstable,fall,stim_set/easy-586.png,235.54387541598408,237.52286958298646,fall,correct,1.984730958007276,right,240.53908074999345,
unstable,fall,stim_set/hard-vcom=3-142.png,240.5865796659782,241.77459287497913,stand,correct,1.198866334016202,left,244.7957029999816,
unstable,fall,stim_set/easy-318.png,244.84157258298364,247.0247804579849,fall,correct,2.193323584011523,right,250.04542212499655,
unstable,fall,stim_set/hard-vcom=4-27.png,250.0937272500014,252.63295370797277,fall,correct,2.54965916601941,right,255.65405724997981,
unstable,fall,stim_set/hard-vcom=4-88.png,255.69655016600154,257.13261629099725,stand,correct,1.4466480409901123,left,260.153841708001,
unstable,fall,stim_set/hard-440.png,260.1975125829922,264.19787695797277,fall,correct,4.006184833997395,right,267.21385016597924,
unstable,fall,stim_set/hard-441.png,267.2559253749787,269.7562158749788,stand,incorrect,2.5062863329949323,left,272.77593245799653,
unstable,fall,stim_set/easy-304.png,272.8212566659786,275.2727751659986,fall,incorrect,2.457184832979692,right,278.2887299579743,
unstable,fall,stim_set/hard-286.png,278.3367278749938,282.93917370800045,stand,correct,4.6089328750094865,left,285.95889504099614,
unstable,fall,stim_set/hard-vcom=1-92.png,286.0073827079905,287.1311397909885,fall,correct,1.1294254579988774,right,290.14705812497414,
unstable,fall,stim_set/easy-vcom=2-73.png,290.1898705829808,291.21458970798994,fall,correct,1.0300761249964125,right,294.2303020829859,
stable,fall,stim_set/hard-vcom=4-130.png,300.4492405829951,302.30760570798884,fall,correct,1.8680240829999093,right,305.32911716599483,
stable,fall,stim_set/easy-vcom=4-69.png,305.3762201249774,307.7912386249809,stand,incorrect,2.4257184169837274,left,310.811841207993,
stable,fall,stim_set/easy-vcom=4-126.png,310.85991758297314,313.8895671659848,fall,correct,3.034818834014004,right,316.9056110409729,
stable,fall,stim_set/hard-474.png,316.94872333298554,319.16642249998404,fall,correct,2.228212624992011,right,322.1873602909909,
stable,fall,stim_set/hard-570.png,322.2356246249983,326.3142994999944,fall,incorrect,4.084464957995806,right,329.3307630829804,
stable,fall,stim_set/easy-vcom=1-83.png,329.36833570798626,331.70763816600083,stand,correct,2.3506980829988606,left,334.729198874993,
stable,fall,stim_set/easy-20.png,334.7730772079958,336.44124029099476,fall,correct,1.6790770829829853,right,339.46259574999567,
stable,fall,stim_set/hard-vcom=4-45.png,339.50806774999364,341.2646344579989,fall,correct,1.7621830840071198,right,344.28135295800166,
stable,fall,stim_set/easy-vcom=3-142.png,344.3273640409752,348.18967337498907,stand,correct,3.8677503340004478,left,351.20556708300137,
stable,fall,stim_set/hard-vcom=2-16.png,351.25352116598515,353.2415877079766,fall,incorrect,1.9986143339774571,right,356.2621435409819,
stable,fall,stim_set/hard-451.png,356.3086539579963,359.2813713749929,fall,correct,2.978105541988043,right,362.29738874998293,
stable,fall,stim_set/easy-538.png,362.3392347499903,363.3395664159907,fall,correct,1.0058765420108102,right,366.35655258299084,
stable,fall,stim_set/easy-63.png,366.39987979098805,368.2080184999795,fall,correct,1.8186768339946866,right,371.2291295409959,
stable,fall,stim_set/hard-40.png,371.2754300829838,374.0980814579816,stand,correct,2.8282775830011815,left,377.11390508298064,
stable,fall,stim_set/easy-vcom=2-3.png,377.15928620798513,380.2396307909803,stand,incorrect,3.0865907080005854,left,383.25614366598893,
stable,fall,stim_set/hard-vcom=4-67.png,383.2994674999791,384.88297541599604,stand,incorrect,1.5946443330030888,left,387.9044746659929,
stable,fall,stim_set/easy-vcom=1-73.png,387.9414415829815,390.64963183298823,stand,correct,2.7194222919933964,left,393.67111141598434,
stable,fall,stim_set/hard-vcom=2-45.png,393.7085367909749,396.4896380829741,stand,incorrect,2.7864556669956073,left,399.5054059159884,
stable,fall,stim_set/easy-590.png,399.5534480829956,401.31622091599274,fall,correct,1.7736713330086786,right,404.33814595799777,
stable,fall,stim_set/easy-31.png,404.3833924999926,405.96675545797916,fall,incorrect,1.5932193330081645,right,408.9873129159969,
stable,fall,stim_set/hard-367.png,409.0316338329867,412.4581467079988,stand,correct,3.4369856659905054,left,415.47860766598023,
stable,fall,stim_set/easy-280.png,415.52239599998575,416.50807720798184,fall,correct,0.9956799999927171,right,419.52895508299116,
stable,fall,stim_set/hard-563.png,419.5772159579792,421.06631224998273,stand,correct,1.4997769170149695,left,424.0870459159778,
stable,fall,stim_set/hard-vcom=1-3.png,424.13190087498515,427.38132237497484,stand,correct,3.254813541978365,left,430.39703108297545,
stable,fall,stim_set/easy-vcom=3-125.png,430.44488433297374,432.05798320798203,fall,incorrect,1.6236495829944033,right,435.07894162498997,
