towers,bet,condition,iti,corr_choice,corr_key,difficulty,block_start,trial_start,stim_on,acc,trial_end,rt,part_choice,part_key,confidence,block_end,updated_score
stim_set/easy-vcom=2-20.png,none.png,unmotivated,2.25,fall,left,easy,3.3329997677356005e-06,0.002630041999509558,5.075672208000469,incorrect,9.64977295800054,,,,,,210.0
stim_set/easy-vcom=4-19.png,none.png,unmotivated,3.25,fall,left,easy,,9.65100750000056,11.224025041999994,incorrect,17.411079041999983,1.5149602910005342,stand,right,4,,
stim_set/hard-vcom=2-137.png,none.png,unmotivated,3.0,fall,left,hard,,17.411782625000342,18.95032395800081,correct,24.200332207999963,1.4922782499997993,fall,left,3,,
stim_set/hard-vcom=3-34.png,none.png,unmotivated,2.0,fall,left,hard,,24.20088937500077,27.20119033300034,correct,33.04183470799944,2.9471479580006417,fall,left,2,,
stim_set/hard-564.png,none.png,unmotivated,3.75,stand,right,hard,,33.04246879200036,34.63207437500023,correct,40.9824399170011,1.532403624998551,stand,right,2,,
stim_set/hard-21.png,none.png,unmotivated,4.0,stand,right,hard,,40.98305120800069,45.33455404199958,correct,51.84847470800014,4.303678250000303,stand,right,2,,
stim_set/hard-vcom=3-145.png,none.png,unmotivated,2.75,fall,left,hard,,51.849022458000036,55.93251933300053,correct,60.99060516700047,4.037437375000081,fall,left,3,,
stim_set/easy-vcom=1-87.png,none.png,unmotivated,3.0,fall,left,easy,,60.991186375000325,63.73256033300095,incorrect,71.46977020800114,2.6856539999989764,stand,right,4,,
stim_set/hard-vcom=2-16.png,none.png,unmotivated,2.5,fall,left,hard,,71.47038862500085,75.44079704199976,correct,80.21301425000092,3.913177333999556,fall,left,2,,
stim_set/hard-91.png,none.png,unmotivated,2.25,stand,right,hard,,80.21352662500067,82.51583045799998,incorrect,87.04211029200087,2.247725208000702,fall,left,2,,
stim_set/hard-214.png,none.png,unmotivated,3.25,stand,right,hard,,87.0426040830007,91.05731591699987,correct,97.17873416700058,3.9583052920006594,stand,right,3,,
stim_set/hard-vcom=1-3.png,none.png,unmotivated,2.75,fall,left,hard,,97.17926979200092,99.39085104200058,correct,104.5910558329997,2.158183708001161,fall,left,1,,
stim_set/hard-441.png,none.png,unmotivated,2.5,stand,right,hard,,104.59169724999992,109.65916695800115,incorrect,113.48192500000005,,,,,,
stim_set/easy-344.png,none.png,unmotivated,4.0,stand,right,easy,,113.48245829200096,115.06581408300008,correct,121.32136508300027,1.5311086249985237,stand,right,4,,
stim_set/hard-177.png,none.png,unmotivated,2.0,stand,right,hard,,121.32202504199995,122.83253116699962,incorrect,127.16781141700085,1.4616632079996634,fall,left,3,,
stim_set/hard-321.png,none.png,unmotivated,2.25,stand,right,hard,,127.16836033300024,129.40742320800018,incorrect,134.97136608300025,2.1882327500006795,fall,left,4,,
stim_set/easy-vcom=4-69.png,none.png,unmotivated,2.25,fall,left,easy,,134.97217108299992,137.14088658299988,incorrect,141.90698216700002,2.1121793749989592,stand,right,3,,
stim_set/hard-vcom=1-30.png,none.png,unmotivated,3.75,fall,left,hard,,141.90753083300115,146.97594745800052,incorrect,152.09479954200106,,,,,,
stim_set/hard-vcom=2-110.png,none.png,unmotivated,3.0,fall,left,hard,,152.09548262499993,155.41742091699962,correct,162.81982408300064,3.2758410420010478,fall,left,5,,
stim_set/easy-vcom=3-38.png,none.png,unmotivated,2.5,fall,left,easy,,162.82039120800073,167.8909606670004,incorrect,171.5223454170009,,,,,,
stim_set/hard-vcom=2-20.png,none.png,unmotivated,2.25,fall,left,hard,,171.52295112499996,175.2660030420011,correct,180.0347676250003,3.686103207999622,fall,left,2,,
stim_set/hard-345.png,none.png,unmotivated,2.5,stand,right,hard,,180.0352934170005,181.2240122080002,correct,185.94882033300019,1.1367616669995186,stand,right,4,,
stim_set/hard-vcom=3-142.png,none.png,unmotivated,3.25,fall,left,hard,,185.94939283300118,189.40077170800032,correct,195.13108900000043,3.400068499999179,fall,left,1,,
stim_set/hard-367.png,none.png,unmotivated,2.5,stand,right,hard,,195.131846708,200.2075597080002,incorrect,204.18657708300088,,,,,,
stim_set/hard-vcom=4-92.png,none.png,unmotivated,2.75,fall,left,hard,,204.18713025000034,207.79263495800114,correct,212.80731670800014,3.553286541000489,fall,left,2,,
stim_set/hard-244.png,none.png,unmotivated,3.25,stand,right,hard,,212.808006958001,214.6994746670007,correct,220.25101054200059,1.8347087080001074,stand,right,3,,
stim_set/hard-391.png,none.png,unmotivated,2.25,stand,right,hard,,220.25166945800083,225.31606674999966,incorrect,228.81610295800056,,,,,,
stim_set/easy-vcom=2-94.png,none.png,unmotivated,2.75,fall,left,easy,,228.81691583300017,233.73276445800002,correct,238.77452904200072,4.863453582998773,fall,left,2,,
stim_set/hard-vcom=4-142.png,none.png,unmotivated,4.0,fall,left,hard,,238.77508370800024,241.69105316700006,incorrect,248.03379524999946,2.8627373749986873,stand,right,4,,
stim_set/easy-vcom=3-74.png,none.png,unmotivated,2.25,fall,left,easy,,248.0343568749995,250.5996038329995,correct,255.19501341700015,2.5096304999988206,fall,left,4,,
stim_set/easy-13.png,none.png,unmotivated,2.5,stand,right,easy,,255.19560170800105,256.9910830000008,correct,261.79023708299974,1.7388823330002197,stand,right,3,,
stim_set/hard-vcom=4-80.png,none.png,unmotivated,3.75,fall,left,hard,,261.7907956250001,265.0327599579996,correct,271.1028019580008,3.1850608749991807,fall,left,2,,
stim_set/hard-369.png,none.png,unmotivated,2.0,stand,right,hard,,271.1033389580007,275.418115167,correct,280.016697250001,4.273294333999729,stand,right,3,,
stim_set/hard-492.png,none.png,unmotivated,2.0,stand,right,hard,,280.0172194170009,282.8930868330008,incorrect,287.3048034170006,2.8265622909984813,fall,left,3,,
stim_set/hard-vcom=1-50.png,none.png,unmotivated,3.75,fall,left,hard,,287.30539341700023,291.1495721249994,correct,298.5281176669996,3.787435000000187,fall,left,2,,
stim_set/easy-280.png,none.png,unmotivated,3.0,stand,right,easy,,298.5286933330008,300.10152666700014,correct,306.484697625001,1.5245930000000953,stand,right,4,,
stim_set/hard-7.png,none.png,unmotivated,2.25,stand,right,hard,,306.4852415000005,309.0580306669999,incorrect,313.57154895799977,2.5149337080001715,fall,left,3,,
stim_set/easy-590.png,none.png,unmotivated,2.5,stand,right,easy,,313.57208337500015,315.0162953750005,correct,321.66255591700065,1.387045292000039,stand,right,3,,
stim_set/hard-600.png,none.png,unmotivated,2.5,stand,right,hard,,321.6631700830003,326.65967141700094,incorrect,331.2526281669998,4.954571416999897,fall,left,3,,
stim_set/easy-411.png,none.png,unmotivated,4.0,stand,right,easy,,331.25318566700116,336.22455487499974,correct,342.76052804200117,4.915076833000057,stand,right,3,342.7608514580006,
stim_set/hard-78.png,none.png,unmotivated,2.25,stand,right,hard,344.1056310420008,344.1063255000008,348.92474329200013,incorrect,354.4205184170005,4.763092791999952,fall,left,3,,
stim_set/hard-vcom=2-100.png,none.png,unmotivated,3.25,fall,left,hard,,354.4211565000005,357.5830141250008,correct,363.5870586250003,3.109670833000564,fall,left,4,,
stim_set/easy-538.png,none.png,unmotivated,2.5,stand,right,easy,,363.5878602499997,366.7498058330002,correct,371.97323241699996,3.110912833000839,stand,right,5,,
stim_set/hard-316.png,none.png,unmotivated,2.0,stand,right,hard,,371.97379466700113,375.3080374170004,correct,379.6088410000011,3.282420749999801,stand,right,4,,
stim_set/hard-566.png,none.png,unmotivated,3.75,stand,right,hard,,379.609469250001,384.68305362499996,incorrect,389.64489445800064,,,,,,
stim_set/easy-164.png,none.png,unmotivated,4.0,stand,right,easy,,389.6454869170011,391.566325875001,correct,397.8493052920003,1.8644500829996105,stand,right,4,,
stim_set/hard-382.png,none.png,unmotivated,2.75,stand,right,hard,,397.84980516699943,399.6080701250012,incorrect,404.7270795830009,1.7127926659995865,fall,left,3,,
stim_set/easy-77.png,none.png,unmotivated,3.0,stand,right,easy,,404.7276223330009,406.09148220799943,correct,412.794935625001,1.311899500000436,stand,right,3,,
stim_set/hard-vcom=4-23.png,none.png,unmotivated,2.5,fall,left,hard,,412.79545520800093,417.3831393750006,correct,422.21275658299965,4.534723999999187,fall,left,2,,
stim_set/hard-vcom=4-147.png,none.png,unmotivated,2.25,fall,left,hard,,422.21333754199986,426.76842424999995,correct,432.1089058329999,4.50258891699923,fall,left,2,,
stim_set/hard-549.png,none.png,unmotivated,3.25,stand,right,hard,,432.1096257499994,435.5497896249999,correct,441.22758279200025,3.3860348329999397,stand,right,2,,
stim_set/hard-2.png,none.png,unmotivated,2.75,stand,right,hard,,441.2281288329996,445.65803912500087,correct,450.8152834579996,4.375320834000377,stand,right,3,,
stim_set/hard-vcom=1-136.png,none.png,unmotivated,2.5,fall,left,hard,,450.81582004200027,454.70806533299947,correct,459.6847672920012,3.8392077919997973,fall,left,3,,
stim_set/easy-vcom=2-3.png,none.png,unmotivated,4.0,fall,left,easy,,459.6852832080003,464.7498550830005,incorrect,469.97463741700085,,,,,,
stim_set/hard-334.png,none.png,unmotivated,2.0,stand,right,hard,,469.9751745829999,472.51841691700065,incorrect,477.6968746670009,2.497794916998828,fall,left,4,,
stim_set/hard-570.png,none.png,unmotivated,2.25,stand,right,hard,,477.69744399999945,482.76656150000053,incorrect,486.1778657499999,,,,,,
stim_set/hard-49.png,none.png,unmotivated,2.25,stand,right,hard,,486.1786380419999,490.1997914170006,correct,495.03555895799946,3.963615917000425,stand,right,4,,
stim_set/easy-vcom=1-145.png,none.png,unmotivated,3.75,fall,left,easy,,495.03613058300107,498.47483354200085,correct,504.48804333299995,3.384389500000907,fall,left,3,,
stim_set/hard-599.png,none.png,unmotivated,3.0,stand,right,hard,,504.4886019170008,508.26654725000117,incorrect,513.5300979580006,3.732451833000596,fall,left,2,,
stim_set/hard-vcom=2-147.png,none.png,unmotivated,2.5,fall,left,hard,,513.5307251670001,518.5915839170011,incorrect,522.2824481250009,,,,,,
stim_set/hard-vcom=3-82.png,none.png,unmotivated,2.25,fall,left,hard,,522.2829919579999,527.3514625830012,incorrect,530.736345917001,,,,,,
stim_set/hard-vcom=4-75.png,none.png,unmotivated,2.5,fall,left,hard,,530.7370187920005,534.659693167001,incorrect,539.4204304169998,3.8721888330001093,stand,right,3,,
stim_set/hard-14.png,none.png,unmotivated,3.25,stand,right,hard,,539.4209934999999,543.6249981670007,incorrect,549.2188910830009,4.157765083000413,fall,left,2,,
stim_set/easy-vcom=1-73.png,none.png,unmotivated,2.5,fall,left,easy,,549.2194190829996,551.6850868750007,incorrect,556.4849923330003,2.4243099159994017,stand,right,3,,
stim_set/easy-vcom=3-142.png,none.png,unmotivated,2.75,fall,left,easy,,556.4855685000002,559.9083196669999,incorrect,564.9350818750008,3.367739541999981,stand,right,2,,
stim_set/easy-vcom=2-147.png,none.png,unmotivated,3.25,fall,left,easy,,564.9356370000005,567.6003368750007,correct,573.1866281250004,2.6102048749999085,fall,left,2,,
stim_set/easy-vcom=3-15.png,none.png,unmotivated,2.25,fall,left,easy,,573.1874927919998,574.9000460830011,incorrect,579.4584940420009,1.6595331250009622,stand,right,3,,
stim_set/hard-vcom=3-7.png,none.png,unmotivated,2.75,fall,left,hard,,579.4590652919997,582.7850078330011,incorrect,587.7904827080001,3.278897833000883,stand,right,2,,
stim_set/hard-182.png,none.png,unmotivated,4.0,stand,right,hard,,587.7910059580008,590.100013833,incorrect,596.3127142499998,2.2628277910007455,fall,left,3,,
stim_set/hard-vcom=1-130.png,none.png,unmotivated,2.25,fall,left,hard,,596.3133494579997,598.859755458001,incorrect,603.450434458,2.499972583998897,stand,right,2,,
stim_set/hard-vcom=3-110.png,none.png,unmotivated,3.0,fall,left,hard,,603.4510896669999,606.0931960420003,correct,611.3695992080011,2.600924209000368,fall,left,3,,
stim_set/hard-82.png,none.png,unmotivated,3.75,stand,right,hard,,611.3702358330011,614.2683685000011,correct,620.6234556670006,2.8485245000010764,stand,right,2,,
stim_set/hard-vcom=1-95.png,none.png,unmotivated,2.0,fall,left,hard,,620.6240230830008,624.8436234580004,incorrect,629.2016563750003,4.172299666999606,stand,right,3,,
stim_set/easy-vcom=1-12.png,none.png,unmotivated,2.0,fall,left,easy,,629.2021979580004,632.5417824169999,correct,636.6330115000001,3.2846264580002753,fall,left,2,,
stim_set/hard-132.png,none.png,unmotivated,3.75,stand,right,hard,,636.6336652919999,640.3351673329998,correct,646.3833972920002,3.654218708999906,stand,right,3,,
stim_set/hard-40.png,none.png,unmotivated,3.0,stand,right,hard,,646.3839055419994,651.4500792500003,incorrect,655.9189309169997,,,,,,
stim_set/hard-280.png,none.png,unmotivated,2.25,stand,right,hard,,655.919548875001,659.4585137920003,incorrect,663.8439884170002,3.4824650420014223,fall,left,2,,
stim_set/easy-vcom=4-126.png,none.png,unmotivated,2.5,fall,left,easy,,663.8448030830004,667.166806833,incorrect,671.9901598329998,3.2651229580005747,stand,right,3,,
stim_set/hard-402.png,none.png,unmotivated,2.5,stand,right,hard,,671.9906934579994,674.1185144579995,correct,681.0393837920001,2.077373959000397,stand,right,3,,
stim_set/hard-vcom=4-139.png,none.png,unmotivated,4.0,fall,left,hard,,681.0399321250006,685.4332737080003,incorrect,692.1382039580003,4.341435375001311,stand,right,3,692.1385404169996,
stim_set/easy-vcom=3-74.png,fall.png,cooperation,2.25,fall,left,easy,,,,,,,,,,,
stim_set/hard-566.png,stand.png,cooperation,3.25,stand,right,hard,,,,,,,,,,,
stim_set/hard-49.png,fall.png,cooperation,3.0,stand,right,hard,,,,,,,,,,,
stim_set/hard-vcom=3-110.png,fall.png,cooperation,2.0,fall,left,hard,,,,,,,,,,,
stim_set/hard-367.png,stand.png,cooperation,3.75,stand,right,hard,,,,,,,,,,,
stim_set/hard-vcom=2-100.png,stand.png,cooperation,4.0,fall,left,hard,,,,,,,,,,,
stim_set/hard-391.png,stand.png,cooperation,2.75,stand,right,hard,,,,,,,,,,,
stim_set/hard-600.png,stand.png,cooperation,3.0,stand,right,hard,,,,,,,,,,,
stim_set/easy-vcom=1-87.png,fall.png,cooperation,2.5,fall,left,easy,,,,,,,,,,,
stim_set/hard-492.png,stand.png,cooperation,2.25,stand,right,hard,,,,,,,,,,,
stim_set/hard-vcom=4-147.png,stand.png,cooperation,3.25,fall,left,hard,,,,,,,,,,,
stim_set/hard-vcom=1-136.png,stand.png,cooperation,2.75,fall,left,hard,,,,,,,,,,,
stim_set/hard-vcom=1-130.png,fall.png,cooperation,2.5,fall,left,hard,,,,,,,,,,,
stim_set/easy-vcom=2-20.png,fall.png,cooperation,4.0,fall,left,easy,,,,,,,,,,,
stim_set/hard-177.png,stand.png,cooperation,2.0,stand,right,hard,,,,,,,,,,,
stim_set/hard-78.png,stand.png,cooperation,2.25,stand,right,hard,,,,,,,,,,,
stim_set/hard-564.png,fall.png,cooperation,2.25,stand,right,hard,,,,,,,,,,,
stim_set/hard-402.png,stand.png,cooperation,3.75,stand,right,hard,,,,,,,,,,,
stim_set/easy-vcom=2-147.png,stand.png,cooperation,3.0,fall,left,easy,,,,,,,,,,,
stim_set/easy-538.png,fall.png,cooperation,2.5,stand,right,easy,,,,,,,,,,,
stim_set/hard-345.png,stand.png,cooperation,2.25,stand,right,hard,,,,,,,,,,,
stim_set/hard-244.png,fall.png,cooperation,2.5,stand,right,hard,,,,,,,,,,,
stim_set/hard-2.png,fall.png,cooperation,3.25,stand,right,hard,,,,,,,,,,,
stim_set/easy-vcom=1-73.png,fall.png,cooperation,2.5,fall,left,easy,,,,,,,,,,,
stim_set/hard-182.png,stand.png,cooperation,2.75,stand,right,hard,,,,,,,,,,,
stim_set/easy-13.png,fall.png,cooperation,3.25,stand,right,easy,,,,,,,,,,,
stim_set/hard-vcom=1-3.png,fall.png,cooperation,2.25,fall,left,hard,,,,,,,,,,,
stim_set/easy-344.png,fall.png,cooperation,2.75,stand,right,easy,,,,,,,,,,,
stim_set/hard-vcom=4-80.png,stand.png,cooperation,4.0,fall,left,hard,,,,,,,,,,,
stim_set/hard-vcom=2-137.png,fall.png,cooperation,2.25,fall,left,hard,,,,,,,,,,,
stim_set/hard-vcom=2-147.png,fall.png,cooperation,2.5,fall,left,hard,,,,,,,,,,,
stim_set/hard-382.png,fall.png,cooperation,3.75,stand,right,hard,,,,,,,,,,,
stim_set/hard-441.png,fall.png,cooperation,2.0,stand,right,hard,,,,,,,,,,,
stim_set/hard-570.png,fall.png,cooperation,2.0,stand,right,hard,,,,,,,,,,,
stim_set/easy-vcom=2-3.png,stand.png,cooperation,3.75,fall,left,easy,,,,,,,,,,,
stim_set/easy-280.png,fall.png,cooperation,3.0,stand,right,easy,,,,,,,,,,,
stim_set/easy-vcom=3-38.png,stand.png,cooperation,2.25,fall,left,easy,,,,,,,,,,,
stim_set/hard-vcom=1-95.png,fall.png,cooperation,2.5,fall,left,hard,,,,,,,,,,,
stim_set/hard-369.png,fall.png,cooperation,2.5,stand,right,hard,,,,,,,,,,,
stim_set/hard-vcom=1-50.png,stand.png,cooperation,4.0,fall,left,hard,,,,,,,,,,,
stim_set/hard-321.png,fall.png,cooperation,2.25,stand,right,hard,,,,,,,,,,,
stim_set/easy-vcom=3-142.png,fall.png,cooperation,3.25,fall,left,easy,,,,,,,,,,,
stim_set/hard-316.png,fall.png,cooperation,2.5,stand,right,hard,,,,,,,,,,,
stim_set/hard-vcom=2-20.png,stand.png,cooperation,2.0,fall,left,hard,,,,,,,,,,,
stim_set/easy-164.png,fall.png,cooperation,3.75,stand,right,easy,,,,,,,,,,,
stim_set/easy-vcom=4-69.png,stand.png,cooperation,4.0,fall,left,easy,,,,,,,,,,,
stim_set/hard-334.png,stand.png,cooperation,2.75,stand,right,hard,,,,,,,,,,,
stim_set/hard-132.png,stand.png,cooperation,3.0,stand,right,hard,,,,,,,,,,,
stim_set/easy-77.png,fall.png,cooperation,2.5,stand,right,easy,,,,,,,,,,,
stim_set/easy-vcom=1-12.png,stand.png,cooperation,2.25,fall,left,easy,,,,,,,,,,,
stim_set/hard-214.png,stand.png,cooperation,3.25,stand,right,hard,,,,,,,,,,,
stim_set/hard-vcom=4-139.png,stand.png,cooperation,2.75,fall,left,hard,,,,,,,,,,,
stim_set/easy-vcom=4-126.png,fall.png,cooperation,2.5,fall,left,easy,,,,,,,,,,,
stim_set/hard-vcom=3-142.png,fall.png,cooperation,4.0,fall,left,hard,,,,,,,,,,,
stim_set/hard-vcom=4-75.png,fall.png,cooperation,2.0,fall,left,hard,,,,,,,,,,,
stim_set/hard-vcom=4-142.png,stand.png,cooperation,2.25,fall,left,hard,,,,,,,,,,,
stim_set/hard-549.png,stand.png,cooperation,2.25,stand,right,hard,,,,,,,,,,,
stim_set/hard-vcom=3-145.png,stand.png,cooperation,3.75,fall,left,hard,,,,,,,,,,,
stim_set/easy-vcom=3-15.png,stand.png,cooperation,3.0,fall,left,easy,,,,,,,,,,,
stim_set/hard-vcom=1-30.png,fall.png,cooperation,2.5,fall,left,hard,,,,,,,,,,,
stim_set/hard-vcom=4-92.png,stand.png,cooperation,2.25,fall,left,hard,,,,,,,,,,,
stim_set/hard-21.png,stand.png,cooperation,2.5,stand,right,hard,,,,,,,,,,,
stim_set/hard-280.png,stand.png,cooperation,3.25,stand,right,hard,,,,,,,,,,,
stim_set/hard-vcom=2-110.png,fall.png,cooperation,2.5,fall,left,hard,,,,,,,,,,,
stim_set/hard-vcom=3-7.png,fall.png,cooperation,2.75,fall,left,hard,,,,,,,,,,,
stim_set/hard-vcom=3-34.png,stand.png,cooperation,3.25,fall,left,hard,,,,,,,,,,,
stim_set/easy-vcom=4-19.png,stand.png,cooperation,2.25,fall,left,easy,,,,,,,,,,,
stim_set/hard-7.png,stand.png,cooperation,2.75,stand,right,hard,,,,,,,,,,,
stim_set/easy-590.png,fall.png,cooperation,4.0,stand,right,easy,,,,,,,,,,,
stim_set/hard-82.png,stand.png,cooperation,2.25,stand,right,hard,,,,,,,,,,,
stim_set/hard-vcom=4-23.png,fall.png,cooperation,3.0,fall,left,hard,,,,,,,,,,,
stim_set/hard-91.png,fall.png,cooperation,3.75,stand,right,hard,,,,,,,,,,,
stim_set/hard-599.png,fall.png,cooperation,2.0,stand,right,hard,,,,,,,,,,,
stim_set/easy-411.png,stand.png,cooperation,2.0,stand,right,easy,,,,,,,,,,,
stim_set/easy-vcom=1-145.png,stand.png,cooperation,3.75,fall,left,easy,,,,,,,,,,,
stim_set/hard-40.png,stand.png,cooperation,3.0,stand,right,hard,,,,,,,,,,,
stim_set/hard-vcom=2-16.png,stand.png,cooperation,2.25,fall,left,hard,,,,,,,,,,,
stim_set/hard-14.png,fall.png,cooperation,2.5,stand,right,hard,,,,,,,,,,,
stim_set/hard-vcom=3-82.png,fall.png,cooperation,2.5,fall,left,hard,,,,,,,,,,,
stim_set/easy-vcom=2-94.png,stand.png,cooperation,4.0,fall,left,easy,,,,,,,,,,,
stim_set/easy-vcom=3-74.png,fall.png,competition,2.25,fall,left,easy,,,,,,,,,,,
stim_set/hard-vcom=1-136.png,fall.png,competition,3.25,fall,left,hard,,,,,,,,,,,
stim_set/hard-369.png,fall.png,competition,3.0,stand,right,hard,,,,,,,,,,,
stim_set/hard-vcom=2-147.png,stand.png,competition,2.0,fall,left,hard,,,,,,,,,,,
stim_set/hard-vcom=2-20.png,stand.png,competition,3.75,fall,left,hard,,,,,,,,,,,
stim_set/easy-vcom=1-73.png,fall.png,competition,4.0,fall,left,easy,,,,,,,,,,,
stim_set/hard-132.png,fall.png,competition,2.75,stand,right,hard,,,,,,,,,,,
stim_set/easy-vcom=2-20.png,stand.png,competition,3.0,fall,left,easy,,,,,,,,,,,
stim_set/hard-280.png,fall.png,competition,2.5,stand,right,hard,,,,,,,,,,,
stim_set/hard-600.png,fall.png,competition,2.25,stand,right,hard,,,,,,,,,,,
stim_set/hard-334.png,stand.png,competition,3.25,stand,right,hard,,,,,,,,,,,
stim_set/easy-vcom=1-12.png,stand.png,competition,2.75,fall,left,easy,,,,,,,,,,,
stim_set/easy-vcom=2-147.png,fall.png,competition,2.5,fall,left,easy,,,,,,,,,,,
stim_set/easy-590.png,stand.png,competition,4.0,stand,right,easy,,,,,,,,,,,
stim_set/hard-91.png,fall.png,competition,2.0,stand,right,hard,,,,,,,,,,,
stim_set/hard-vcom=1-95.png,stand.png,competition,2.25,fall,left,hard,,,,,,,,,,,
stim_set/hard-402.png,stand.png,competition,2.25,stand,right,hard,,,,,,,,,,,
stim_set/hard-49.png,fall.png,competition,3.75,stand,right,hard,,,,,,,,,,,
stim_set/easy-vcom=4-69.png,stand.png,competition,3.0,fall,left,easy,,,,,,,,,,,
stim_set/easy-vcom=3-38.png,stand.png,competition,2.5,fall,left,easy,,,,,,,,,,,
stim_set/hard-vcom=3-7.png,fall.png,competition,2.25,fall,left,hard,,,,,,,,,,,
stim_set/easy-vcom=3-142.png,stand.png,competition,2.5,fall,left,easy,,,,,,,,,,,
stim_set/hard-345.png,stand.png,competition,3.25,stand,right,hard,,,,,,,,,,,
stim_set/easy-164.png,stand.png,competition,2.5,stand,right,easy,,,,,,,,,,,
stim_set/hard-2.png,fall.png,competition,2.75,stand,right,hard,,,,,,,,,,,
stim_set/hard-vcom=4-75.png,stand.png,competition,3.25,fall,left,hard,,,,,,,,,,,
stim_set/hard-40.png,stand.png,competition,2.25,stand,right,hard,,,,,,,,,,,
stim_set/hard-vcom=2-100.png,fall.png,competition,2.75,fall,left,hard,,,,,,,,,,,
stim_set/hard-vcom=3-145.png,stand.png,competition,4.0,fall,left,hard,,,,,,,,,,,
stim_set/hard-82.png,fall.png,competition,2.25,stand,right,hard,,,,,,,,,,,
stim_set/easy-vcom=2-3.png,fall.png,competition,2.5,fall,left,easy,,,,,,,,,,,
stim_set/hard-566.png,fall.png,competition,3.75,stand,right,hard,,,,,,,,,,,
stim_set/hard-214.png,stand.png,competition,2.0,stand,right,hard,,,,,,,,,,,
stim_set/easy-vcom=4-19.png,fall.png,competition,2.0,fall,left,easy,,,,,,,,,,,
stim_set/easy-280.png,fall.png,competition,3.75,stand,right,easy,,,,,,,,,,,
stim_set/hard-321.png,stand.png,competition,3.0,stand,right,hard,,,,,,,,,,,
stim_set/hard-182.png,stand.png,competition,2.25,stand,right,hard,,,,,,,,,,,
stim_set/hard-vcom=3-34.png,stand.png,competition,2.5,fall,left,hard,,,,,,,,,,,
stim_set/easy-538.png,fall.png,competition,2.5,stand,right,easy,,,,,,,,,,,
stim_set/hard-244.png,stand.png,competition,4.0,stand,right,hard,,,,,,,,,,,
stim_set/easy-13.png,stand.png,competition,2.25,stand,right,easy,,,,,,,,,,,
stim_set/hard-vcom=4-23.png,stand.png,competition,3.25,fall,left,hard,,,,,,,,,,,
stim_set/hard-vcom=4-80.png,fall.png,competition,2.5,fall,left,hard,,,,,,,,,,,
stim_set/easy-77.png,stand.png,competition,2.0,stand,right,easy,,,,,,,,,,,
stim_set/hard-177.png,fall.png,competition,3.75,stand,right,hard,,,,,,,,,,,
stim_set/easy-vcom=2-94.png,fall.png,competition,4.0,fall,left,easy,,,,,,,,,,,
stim_set/hard-vcom=1-30.png,fall.png,competition,2.75,fall,left,hard,,,,,,,,,,,
stim_set/easy-vcom=3-15.png,fall.png,competition,3.0,fall,left,easy,,,,,,,,,,,
stim_set/hard-vcom=1-3.png,stand.png,competition,2.5,fall,left,hard,,,,,,,,,,,
stim_set/easy-411.png,stand.png,competition,2.25,stand,right,easy,,,,,,,,,,,
stim_set/easy-344.png,fall.png,competition,3.25,stand,right,easy,,,,,,,,,,,
stim_set/hard-vcom=3-142.png,fall.png,competition,2.75,fall,left,hard,,,,,,,,,,,
stim_set/hard-vcom=3-110.png,stand.png,competition,2.5,fall,left,hard,,,,,,,,,,,
stim_set/hard-441.png,stand.png,competition,4.0,stand,right,hard,,,,,,,,,,,
stim_set/hard-570.png,stand.png,competition,2.0,stand,right,hard,,,,,,,,,,,
stim_set/hard-492.png,fall.png,competition,2.25,stand,right,hard,,,,,,,,,,,
stim_set/hard-vcom=3-82.png,stand.png,competition,2.25,fall,left,hard,,,,,,,,,,,
stim_set/hard-vcom=1-50.png,fall.png,competition,3.75,fall,left,hard,,,,,,,,,,,
stim_set/hard-vcom=2-137.png,stand.png,competition,3.0,fall,left,hard,,,,,,,,,,,
stim_set/hard-vcom=4-147.png,stand.png,competition,2.5,fall,left,hard,,,,,,,,,,,
stim_set/hard-599.png,stand.png,competition,2.25,stand,right,hard,,,,,,,,,,,
stim_set/hard-vcom=4-139.png,fall.png,competition,2.5,fall,left,hard,,,,,,,,,,,
stim_set/hard-vcom=1-130.png,fall.png,competition,3.25,fall,left,hard,,,,,,,,,,,
stim_set/easy-vcom=1-87.png,stand.png,competition,2.5,fall,left,easy,,,,,,,,,,,
stim_set/hard-549.png,stand.png,competition,2.75,stand,right,hard,,,,,,,,,,,
stim_set/hard-391.png,stand.png,competition,3.25,stand,right,hard,,,,,,,,,,,
stim_set/hard-vcom=2-110.png,fall.png,competition,2.25,fall,left,hard,,,,,,,,,,,
stim_set/hard-vcom=4-142.png,fall.png,competition,2.75,fall,left,hard,,,,,,,,,,,
stim_set/hard-564.png,stand.png,competition,4.0,stand,right,hard,,,,,,,,,,,
stim_set/hard-vcom=2-16.png,stand.png,competition,2.25,fall,left,hard,,,,,,,,,,,
stim_set/easy-vcom=4-126.png,fall.png,competition,3.0,fall,left,easy,,,,,,,,,,,
stim_set/hard-vcom=4-92.png,fall.png,competition,3.75,fall,left,hard,,,,,,,,,,,
stim_set/hard-7.png,fall.png,competition,2.0,stand,right,hard,,,,,,,,,,,
stim_set/hard-382.png,fall.png,competition,2.0,stand,right,hard,,,,,,,,,,,
stim_set/hard-316.png,stand.png,competition,3.75,stand,right,hard,,,,,,,,,,,
stim_set/hard-367.png,fall.png,competition,3.0,stand,right,hard,,,,,,,,,,,
stim_set/hard-21.png,stand.png,competition,2.25,stand,right,hard,,,,,,,,,,,
stim_set/hard-78.png,fall.png,competition,2.5,stand,right,hard,,,,,,,,,,,
stim_set/easy-vcom=1-145.png,stand.png,competition,2.5,fall,left,easy,,,,,,,,,,,
stim_set/hard-14.png,fall.png,competition,4.0,stand,right,hard,,,,,,,,,,,
stim_set/hard-402.png,stand.png,cooperation,3.75,stand,right,hard,,,,,,,,,,,
stim_set/hard-564.png,stand.png,competition,4.0,stand,right,hard,,,,,,,,,,,
